time,activity,acceleration_x,acceleration_y,acceleration_z,gyro_x,gyro_y,gyro_z
2463163075,0,-0.8392514,2.743039,10.026429,0,0,0
2463163085,0,-0.8392514,2.743039,10.026429,0,0,0
2463163095,0,-0.8392514,2.743039,10.026429,0,0,0
2463163105,0,-0.8392514,2.743039,10.026429,0,0,0
2463163115,0,-0.8392514,2.743039,10.026429,0,0,0
2463163125,0,-0.8392514,2.743039,10.026429,0,0,0
2463163134,0,-0.6309649,2.747827,10.6872,0,0,0
2463163144,0,-0.8512219,2.4677176,10.641712,0,0,0
2463163154,0,-1.0188088,2.266613,10.373573,0,0,0
2463163164,0,-1.1337256,2.2714014,10.158104,0,0,0
2463163174,0,-1.2294896,2.403077,9.961788,0,0,0
2463163183,0,-1.3755296,2.606575,9.485362,0,0,0
2463163193,0,-1.3276477,3.1165183,8.896414,0,0,0
2463163198,0,-1.3276477,3.1165183,8.896414,0.84402394,-0.011976531,-0.011976531
2463163203,0,-1.1840017,3.5450618,8.250007,0.84402394,-0.011976531,-0.011976531
2463163213,0,-0.9230449,3.6982844,7.728094,0.84402394,-0.011976531,-0.011976531
2463163208,0,-0.9230449,3.6982844,7.728094,0.8757889,-0.019917771,-0.019917771
2463163218,0,-0.9230449,3.6982844,7.728094,0.8275306,-0.06695436,-0.06695436
2463163223,0,-0.72194064,3.693496,7.799917,0.8275306,-0.06695436,-0.06695436
2463163233,0,-0.6573,3.743772,8.250007,0.8275306,-0.06695436,-0.06695436
2463163228,0,-0.6573,3.743772,8.250007,0.7420096,-0.1268191,-0.1268191
2463163237,0,-0.6573,3.743772,8.250007,0.6577102,-0.1872947,-0.1872947
2463163242,0,-0.9158627,3.7581365,8.64264,0.6577102,-0.1872947,-0.1872947
2463163252,0,-1.263007,3.6815255,8.743192,0.6577102,-0.1872947,-0.1872947
2463163247,0,-1.263007,3.6815255,8.743192,0.5850173,-0.22700092,-0.22700092
2463163257,0,-1.263007,3.6815255,8.743192,0.5282069,-0.23372042,-0.23372042
2463163262,0,-1.5574812,3.5211208,8.724039,0.5282069,-0.23372042,-0.23372042
2463163267,0,-1.5574812,3.5211208,8.724039,0.48788977,-0.21295103,-0.21295103
2463163272,0,-1.7298563,3.3655045,8.771921,0.48788977,-0.21295103,-0.21295103
2463163277,0,-1.7298563,3.3655045,8.771921,0.46773124,-0.17813174,-0.17813174
2463163282,0,-1.7849206,3.236223,8.815015,0.46773124,-0.17813174,-0.17813174
2463163291,0,-1.820832,3.209888,8.826985,0.46773124,-0.17813174,-0.17813174
2463163287,0,-1.820832,3.209888,8.826985,0.47322902,-0.13414948,-0.13414948
2463163296,0,-1.820832,3.209888,8.826985,0.49766362,-0.08466943,-0.08466943
2463163301,0,-1.8495611,3.260164,8.688127,0.49766362,-0.08466943,-0.08466943
2463163306,0,-1.8495611,3.260164,8.688127,0.52698517,-0.02846988,-0.02846988
2463163311,0,-1.8663199,3.3583221,8.285919,0.52698517,-0.02846988,-0.02846988
2463163316,0,-1.8663199,3.3583221,8.285919,0.53798074,0.028951406,0.028951406
2463163321,0,-1.8112556,3.4947858,7.8238583,0.53798074,0.028951406,0.028951406
2463163326,0,-1.8112556,3.4947858,7.8238583,0.50988096,0.07965317,0.07965317
2463163331,0,-1.8040733,3.624067,7.4815016,0.50988096,0.07965317,0.07965317
2463163336,0,-1.8040733,3.624067,7.4815016,0.4439075,0.12546803,0.12546803
2463163341,0,-1.8687139,3.6575847,7.2349095,0.4439075,0.12546803,0.12546803
2463163345,0,-1.8687139,3.6575847,7.2349095,0.35838646,0.16883942,0.16883942
2463163350,0,-1.8399848,3.7054665,7.00747,0.35838646,0.16883942,0.16883942
2463163360,0,-1.7274622,3.8012304,6.9380417,0.35838646,0.16883942,0.16883942
2463163355,0,-1.7274622,3.8012304,6.9380417,0.26981106,0.2073239,0.2073239
2463163365,0,-1.7274622,3.8012304,6.9380417,0.1861226,0.23420195,0.23420195
2463163370,0,-1.6843684,3.8012304,7.0792933,0.1861226,0.23420195,0.23420195
2463163375,0,-1.6843684,3.8012304,7.0792933,0.12381439,0.26046914,0.26046914
2463163380,0,-1.6316981,3.8060186,7.244486,0.12381439,0.26046914,0.26046914
2463163385,0,-1.6316981,3.8060186,7.244486,0.11465143,0.283682,0.283682
2463163390,0,-1.4377762,3.813201,7.347432,0.11465143,0.283682,0.283682
2463163395,0,-1.4377762,3.813201,7.347432,0.1427512,0.28612545,0.28612545
2463163399,0,-1.1648489,3.7246194,7.388132,0.1427512,0.28612545,0.28612545
2463163409,0,-1.0044442,3.7341957,7.531778,0.1427512,0.28612545,0.28612545
2463163404,0,-1.0044442,3.7341957,7.531778,0.16229887,0.2629126,0.2629126
2463163414,0,-1.0044442,3.7341957,7.531778,0.15191418,0.22442812,0.22442812
2463163419,0,-0.9517741,3.743772,7.7424583,0.15191418,0.22442812,0.22442812
2463163429,0,-0.99007964,3.746166,7.8693457,0.15191418,0.22442812,0.22442812
2463163424,0,-0.99007964,3.746166,7.8693457,0.10060154,0.18533278,0.18533278
2463163434,0,-0.99007964,3.746166,7.8693457,0.011415293,0.16211991,0.16211991
2463163439,0,-0.997262,3.762925,7.780764,0.011415293,0.16211991,0.16211991
2463163444,0,-0.997262,3.762925,7.780764,-0.100372955,0.15906559,0.15906559
2463163449,0,-1.0116266,3.8299596,7.6275415,-0.100372955,0.15906559,0.15906559
2463163453,0,-1.0116266,3.8299596,7.6275415,-0.22743282,0.1725046,0.1725046
2463163458,0,-1.0786613,3.8993886,7.613177,-0.22743282,0.1725046,0.1725046
2463163463,0,-1.0786613,3.8993886,7.613177,-0.3526601,0.18716536,0.18716536
2463163468,0,-1.1792135,3.9257236,7.756823,-0.3526601,0.18716536,0.18716536
2463163478,0,-1.191184,3.8754475,8.166214,-0.3526601,0.18716536,0.18716536
2463163473,0,-1.191184,3.8754475,8.166214,-0.4442898,0.20121525,0.20121525
2463163483,0,-1.191184,3.8754475,8.166214,-0.49315897,0.21221082,0.21221082
2463163488,0,-1.1385138,3.767713,8.714463,-0.49315897,0.21221082,0.21221082
2463163493,0,-1.1385138,3.767713,8.714463,-0.5029328,0.21831946,0.21831946
2463163498,0,-1.0714791,3.6887078,9.399175,-0.5029328,0.21831946,0.21831946
2463163503,0,-1.0714791,3.6887078,9.399175,-0.48094168,0.22381724,0.22381724
2463163507,0,-0.9278331,3.600126,10.007276,-0.48094168,0.22381724,0.22381724
2463163512,0,-0.9278331,3.600126,10.007276,-0.43085077,0.23359108,0.23359108
2463163517,0,-0.827281,3.5067563,10.282597,-0.43085077,0.23359108,0.23359108
2463163522,0,-0.827281,3.5067563,10.282597,-0.36548826,0.24580838,0.24580838
2463163527,0,-0.7985518,3.499574,10.038399,-0.36548826,0.24580838,0.24580838
2463163537,0,-0.683635,3.621673,9.377628,-0.36548826,0.24580838,0.24580838
2463163532,0,-0.683635,3.621673,9.377628,-0.30684525,0.25863653,0.25863653
2463163542,0,-0.683635,3.621673,9.377628,-0.27385855,0.26352346,0.26352346
2463163547,0,-0.5399891,3.8323538,8.745586,-0.27385855,0.26352346,0.26352346
2463163552,0,-0.5399891,3.8323538,8.745586,-0.26897162,0.24825184,0.24825184
2463163556,0,-0.3556435,4.035852,8.372106,-0.26897162,0.24825184,0.24825184
2463163566,0,-0.3484612,4.086128,8.326619,-0.26897162,0.24825184,0.24825184
2463163561,0,-0.3484612,4.086128,8.326619,-0.28057805,0.20976736,0.20976736
2463163571,0,-0.3484612,4.086128,8.326619,-0.2952388,0.15967645,0.15967645
2463163576,0,-0.45380157,4.0286694,8.546876,-0.2952388,0.15967645,0.15967645
2463163581,0,-0.45380157,4.0286694,8.546876,-0.30195832,0.11325073,0.11325073
2463163585,0,-0.5567478,3.9759996,9.011331,-0.30195832,0.11325073,0.11325073
2463163590,0,-0.5567478,3.9759996,9.011331,-0.29462793,0.083929226,0.083929226
2463163595,0,-0.6740587,3.887418,9.442269,-0.29462793,0.083929226,0.083929226
2463163600,0,-0.6740587,3.887418,9.442269,-0.27874544,0.07843144,0.07843144
2463163605,0,-0.69081736,3.7988362,9.617038,-0.27874544,0.07843144,0.07843144
2463163609,0,-0.69081736,3.7988362,9.617038,-0.26713902,0.082707494,0.082707494
2463163614,0,-0.64772356,3.7868657,9.755895,-0.26713902,0.082707494,0.082707494
2463163619,0,-0.64772356,3.7868657,9.755895,-0.27141508,0.083929226,0.083929226
2463163624,0,-0.64772356,3.8682654,9.86363,-0.27141508,0.083929226,0.083929226
2463163629,0,-0.64772356,3.8682654,9.86363,-0.2866867,0.082707494,0.082707494
2463163633,0,-0.6596941,3.9831822,10.052764,-0.2866867,0.082707494,0.082707494
2463163638,0,-0.6596941,3.9831822,10.052764,-0.30256918,0.07843144,0.07843144
2463163643,0,-0.5711124,3.9927585,10.423849,-0.30256918,0.07843144,0.07843144
2463163648,0,-0.5711124,3.9927585,10.423849,-0.289741,0.07293366,0.07293366
2463163653,0,-0.48971307,3.880236,10.629742,-0.289741,0.07293366,0.07293366
2463163658,0,-0.48971307,3.880236,10.629742,-0.23720665,0.06315983,0.06315983
2463163662,0,-0.4226783,3.762925,10.419061,-0.23720665,0.06315983,0.06315983
2463163667,0,-0.4226783,3.762925,10.419061,-0.16634634,0.043001294,0.043001294
2463163672,0,-0.4226783,3.8275654,9.985729,-0.16634634,0.043001294,0.043001294
2463163677,0,-0.4226783,3.8275654,9.985729,-0.10220555,0.022231894,0.022231894
2463163682,0,-0.43225467,3.8993886,9.308199,-0.10220555,0.022231894,0.022231894
2463163686,0,-0.43225467,3.8993886,9.308199,-0.071662314,0.0026842223,0.0026842223
2463163691,0,-0.3891609,4.0238814,8.903596,-0.071662314,0.0026842223,0.0026842223
2463163696,0,-0.3891609,4.0238814,8.903596,-0.091209985,-0.029080743,-0.029080743
2463163701,0,-0.41310188,4.0933104,8.925143,-0.091209985,-0.029080743,-0.029080743
2463163706,0,-0.41310188,4.0933104,8.925143,-0.14252262,-0.06817609,-0.06817609
2463163710,0,-0.5112599,4.0526104,9.233982,-0.14252262,-0.06817609,-0.06817609
2463163715,0,-0.5112599,4.0526104,9.233982,-0.20727429,-0.104217105,-0.104217105
2463163720,0,-0.66448224,3.889812,9.600279,-0.20727429,-0.104217105,-0.104217105
2463163730,0,-0.8105222,3.6599786,10.026429,-0.20727429,-0.104217105,-0.104217105
2463163725,0,-0.8105222,3.6599786,10.026429,-0.26469555,-0.12132132,-0.12132132
2463163735,0,-0.8105222,3.6599786,10.026429,-0.29768226,-0.111547485,-0.111547485
2463163739,0,-0.9230449,3.525909,10.316115,-0.29768226,-0.111547485,-0.111547485
2463163744,0,-0.9230449,3.525909,10.316115,-0.3044018,-0.087112896,-0.087112896
2463163749,0,-0.9709269,3.4588742,10.495672,-0.3044018,-0.087112896,-0.087112896
2463163754,0,-0.9709269,3.4588742,10.495672,-0.28363237,-0.06267831,-0.06267831
2463163759,0,-0.94938004,3.4397216,10.433425,-0.28363237,-0.06267831,-0.06267831
2463163763,0,-0.94938004,3.4397216,10.433425,-0.2451479,-0.04435236,-0.04435236
2463163768,0,-0.8943157,3.425357,10.215562,-0.2451479,-0.04435236,-0.04435236
2463163773,0,-0.8943157,3.425357,10.215562,-0.1999439,-0.032135066,-0.032135066
2463163778,0,-0.6596941,3.5642145,9.96897,-0.1999439,-0.032135066,-0.032135066
2463163783,0,-0.6596941,3.5642145,9.96897,-0.15901597,-0.034578525,-0.034578525
2463163787,0,-0.3652199,3.743772,9.851659,-0.15901597,-0.034578525,-0.034578525
2463163792,0,-0.3652199,3.743772,9.851659,-0.122974955,-0.06878696,-0.06878696
2463163797,0,-0.24551497,3.8108068,9.736743,-0.122974955,-0.06878696,-0.06878696
2463163802,0,-0.24551497,3.8108068,9.736743,-0.0875448,-0.12559737,-0.12559737
2463163807,0,-0.3700081,3.6887078,9.5787325,-0.0875448,-0.12559737,-0.12559737
2463163812,0,-0.3700081,3.6887078,9.5787325,-0.053336367,-0.17813174,-0.17813174
2463163816,0,-0.6118121,3.4923918,9.37284,-0.053336367,-0.17813174,-0.17813174
2463163821,0,-0.6118121,3.4923918,9.37284,-0.027069185,-0.2098967,-0.2098967
2463163826,0,-0.88952756,3.252982,9.183706,-0.027069185,-0.2098967,-0.2098967
2463163831,0,-0.88952756,3.252982,9.183706,-0.016684484,-0.21050757,-0.21050757
2463163836,0,-1.0786613,3.1189122,8.992178,-0.016684484,-0.21050757,-0.21050757
2463163845,0,-1.1792135,3.0758185,8.85332,-0.016684484,-0.21050757,-0.21050757
2463163840,0,-1.1792135,3.0758185,8.85332,-0.030123508,-0.18851644,-0.18851644
2463163850,0,-1.1792135,3.0758185,8.85332,-0.06799713,-0.15675147,-0.15675147
2463163855,0,-1.1840017,3.083001,8.817409,-0.06799713,-0.15675147,-0.15675147
2463163864,0,-1.0020502,3.159612,8.917961,-0.06799713,-0.15675147,-0.15675147
2463163860,0,-1.0020502,3.159612,8.917961,-0.11320112,-0.114601806,-0.114601806
2463163869,0,-1.0020502,3.159612,8.917961,-0.15107474,-0.07611733,-0.07611733
2463163874,0,-0.7027879,3.2984698,9.044848,-0.15107474,-0.07611733,-0.07611733
2463163879,0,-0.7027879,3.2984698,9.044848,-0.17123327,-0.06390004,-0.06390004
2463163884,0,-0.44661927,3.4445097,9.090336,-0.17123327,-0.06390004,-0.06390004
2463163888,0,-0.44661927,3.4445097,9.090336,-0.17917451,-0.08161511,-0.08161511
2463163893,0,-0.30776155,3.5594265,9.111883,-0.17917451,-0.08161511,-0.08161511
2463163898,0,-0.30776155,3.5594265,9.111883,-0.17673105,-0.11276922,-0.11276922
2463163903,0,-0.33649075,3.5546384,9.157371,-0.17673105,-0.11276922,-0.11276922
2463163908,0,-0.33649075,3.5546384,9.157371,-0.16940068,-0.14392331,-0.14392331
2463163913,0,-0.3867668,3.5115445,9.262711,-0.16940068,-0.14392331,-0.14392331
2463163917,0,-0.3867668,3.5115445,9.262711,-0.1687898,-0.16896877,-0.16896877
2463163922,0,-0.42028418,3.3726869,9.46621,-0.1687898,-0.16896877,-0.16896877
2463163932,0,-0.50647175,3.231435,9.715196,-0.1687898,-0.16896877,-0.16896877
2463163927,0,-0.50647175,3.231435,9.715196,-0.17428759,-0.18118607,-0.18118607
2463163937,0,-0.50647175,3.231435,9.715196,-0.18406142,-0.17935348,-0.17935348
2463163941,0,-0.48971307,3.226647,9.961788,-0.18406142,-0.17935348,-0.17935348
2463163946,0,-0.48971307,3.226647,9.961788,-0.20544168,-0.17996433,-0.17996433
2463163951,0,-0.5304127,3.1691883,10.19641,-0.20544168,-0.17996433,-0.17996433
2463163956,0,-0.5304127,3.1691883,10.19641,-0.23109801,-0.18362953,-0.18362953
2463163961,0,-0.6405413,3.0590599,10.268233,-0.23109801,-0.18362953,-0.18362953
2463163965,0,-0.6405413,3.0590599,10.268233,-0.2488131,-0.17691001,-0.17691001
2463163970,0,-0.8105222,2.920202,10.19641,-0.2488131,-0.17691001,-0.17691001
2463163975,0,-0.8105222,2.920202,10.19641,-0.24575876,-0.15675147,-0.15675147
2463163980,0,-0.93501544,2.8364086,10.014458,-0.24575876,-0.15675147,-0.15675147
2463163985,0,-0.93501544,2.8364086,10.014458,-0.21704812,-0.13109516,-0.13109516
2463163990,0,-0.96374464,2.8172557,9.854054,-0.21704812,-0.13109516,-0.13109516
2463163994,0,-0.96374464,2.8172557,9.854054,-0.1687898,-0.10971489,-0.10971489
2463163999,0,-0.9230449,2.8340147,9.710408,-0.1687898,-0.10971489,-0.10971489
2463164004,0,-0.9230449,2.8340147,9.710408,-0.116866305,-0.095665,-0.095665
2463164009,0,-0.8536161,2.8507733,9.550003,-0.116866305,-0.095665,-0.095665
2463164014,0,-0.8536161,2.8507733,9.550003,-0.07593837,-0.087112896,-0.087112896
2463164018,0,-0.74827564,2.87232,9.454239,-0.07593837,-0.087112896,-0.087112896
2463164023,0,-0.74827564,2.87232,9.454239,-0.05516896,-0.0852803,-0.0852803
2463164028,0,-0.61899436,2.939355,9.430298,-0.05516896,-0.0852803,-0.0852803
2463164033,0,-0.61899436,2.939355,9.430298,-0.05883415,-0.093221545,-0.093221545
2463164038,0,-0.54956555,2.9369607,9.561973,-0.05883415,-0.093221545,-0.093221545
2463164042,0,-0.54956555,2.9369607,9.561973,-0.07654923,-0.1078823,-0.1078823
2463164047,0,-0.60941803,2.8220441,9.657737,-0.07654923,-0.1078823,-0.1078823
2463164052,0,-0.60941803,2.8220441,9.657737,-0.09365345,-0.11582354,-0.11582354
2463164057,0,-0.76264036,2.7190979,9.619432,-0.09365345,-0.11582354,-0.11582354
2463164062,0,-0.76264036,2.7190979,9.619432,-0.10403815,-0.10727143,-0.10727143
2463164067,0,-0.9158627,2.6855803,9.590703,-0.10403815,-0.10727143,-0.10727143
2463164071,0,-0.9158627,2.6855803,9.590703,-0.10342728,-0.0852803,-0.0852803
2463164076,0,-0.9709269,2.676004,9.528456,-0.10342728,-0.0852803,-0.0852803
2463164081,0,-0.9709269,2.676004,9.528456,-0.09059912,-0.05962398,-0.05962398
2463164086,0,-0.94459176,2.7310684,9.4087515,-0.09059912,-0.05962398,-0.05962398
2463164091,0,-0.94459176,2.7310684,9.4087515,-0.07227318,-0.039465442,-0.039465442
2463164095,0,-0.9086803,2.7621915,9.389598,-0.07227318,-0.039465442,-0.039465442
2463164100,0,-0.9086803,2.7621915,9.389598,-0.0527255,-0.02602642,-0.02602642
2463164105,0,-0.8799511,2.8076797,9.387204,-0.0527255,-0.02602642,-0.02602642
2463164110,0,-0.8799511,2.8076797,9.387204,-0.03928648,-0.015030853,-0.015030853
2463164115,0,-0.82009864,2.8483791,9.380022,-0.03928648,-0.015030853,-0.015030853
2463164119,0,-0.82009864,2.8483791,9.380022,-0.03562129,-0.0064787487,-0.0064787487
2463164124,0,-0.7027879,2.8890789,9.353687,-0.03562129,-0.0064787487,-0.0064787487
2463164129,0,-0.7027879,2.8890789,9.353687,-0.042951666,-0.0028135602,-0.0028135602
2463164134,0,-0.6381471,2.941749,9.315381,-0.042951666,-0.0028135602,-0.0028135602
2463164139,0,-0.6381471,2.941749,9.315381,-0.058223285,-0.0070896135,-0.0070896135
2463164143,0,-0.6596941,3.0207543,9.2268,-0.058223285,-0.0070896135,-0.0070896135
2463164148,0,-0.6596941,3.0207543,9.2268,-0.07960356,-0.01441999,-0.01441999
2463164153,0,-0.77700484,3.1476417,9.056819,-0.07960356,-0.01441999,-0.01441999
2463164158,0,-0.77700484,3.1476417,9.056819,-0.10464901,-0.024193825,-0.024193825
2463164163,0,-0.93022716,3.2745287,8.874867,-0.10464901,-0.024193825,-0.024193825
2463164168,0,-0.93022716,3.2745287,8.874867,-0.13580312,-0.03518939,-0.03518939
2463164172,0,-1.0930259,3.3942335,8.709674,-0.13580312,-0.03518939,-0.03518939
2463164177,0,-1.0930259,3.3942335,8.709674,-0.17673105,-0.04679582,-0.04679582
2463164182,0,-1.2869478,3.4397216,8.736009,-0.17673105,-0.04679582,-0.04679582
2463164187,0,-1.2869478,3.4397216,8.736009,-0.22193503,-0.054126196,-0.054126196
2463164192,0,-1.3444062,3.4373276,8.958661,-0.22193503,-0.054126196,-0.054126196
2463164196,0,-1.3444062,3.4373276,8.958661,-0.26713902,-0.06390004,-0.06390004
2463164201,0,-1.3659533,3.308046,9.413539,-0.26713902,-0.06390004,-0.06390004
2463164206,0,-1.3659533,3.308046,9.413539,-0.30256918,-0.0748956,-0.0748956
2463164211,0,-1.3946824,3.0590599,10.004882,-0.30256918,-0.0748956,-0.0748956
2463164216,0,-1.3946824,3.0590599,10.004882,-0.31539735,-0.07184128,-0.07184128
2463164220,0,-1.4281998,2.771768,10.601012,-0.31539735,-0.07184128,-0.07184128
2463164225,0,-1.4281998,2.771768,10.601012,-0.29646054,-0.052293602,-0.052293602
2463164230,0,-1.432988,2.5108113,11.063073,-0.29646054,-0.052293602,-0.052293602
2463164235,0,-1.432988,2.5108113,11.063073,-0.25064567,-0.016863449,-0.016863449
2463164240,0,-1.409047,2.2857661,11.36473,-0.25064567,-0.016863449,-0.016863449
2463164245,0,-1.409047,2.2857661,11.36473,-0.17978537,0.030173134,0.030173134
2463164249,0,-1.2773715,2.1564846,11.486829,-0.17978537,0.030173134,0.030173134
2463164254,0,-1.2773715,2.1564846,11.486829,-0.09426431,0.08026404,0.08026404
2463164259,0,-1.0834496,2.1756372,11.326424,-0.09426431,0.08026404,0.08026404
2463164264,0,-1.0834496,2.1756372,11.326424,-0.013019295,0.1242463,0.1242463
2463164269,0,-0.94938004,2.2714014,11.039132,-0.013019295,0.1242463,0.1242463
2463164273,0,-0.94938004,2.2714014,11.039132,0.05234323,0.15906559,0.15906559
2463164278,0,-0.86319244,2.431806,10.708747,0.05234323,0.15906559,0.15906559
2463164283,0,-0.86319244,2.431806,10.708747,0.096936345,0.19083056,0.19083056
2463164288,0,-0.77700484,2.5969987,10.373573,0.096936345,0.19083056,0.19083056
2463164297,0,-0.6405413,2.8268323,10.146134,0.096936345,0.19083056,0.19083056
2463164293,0,-0.6405413,2.8268323,10.146134,0.12442526,0.21831946,0.21831946
2463164302,0,-0.6405413,2.8268323,10.146134,0.1427512,0.23725627,0.23725627
2463164307,0,-0.4442252,2.9872367,9.971364,0.1427512,0.23725627,0.23725627
2463164312,0,-0.4442252,2.9872367,9.971364,0.15741195,0.23969974,0.23969974
2463164317,0,-0.28142646,3.1045477,9.935453,0.15741195,0.23969974,0.23969974
2463164322,0,-0.28142646,3.1045477,9.935453,0.16779666,0.22503898,0.22503898
2463164326,0,-0.15693332,3.2410114,9.96897,0.16779666,0.22503898,0.22503898
2463164331,0,-0.15693332,3.2410114,9.96897,0.17451617,0.19755006,0.19755006
2463164336,0,0.0034713,3.279317,9.86363,0.17451617,0.19755006,0.19755006
2463164341,0,0.0034713,3.279317,9.86363,0.15924455,0.15906559,0.15906559
2463164346,0,0.02022998,3.3032577,9.9163,0.15924455,0.15906559,0.15906559
2463164350,0,0.02022998,3.3032577,9.9163,0.1219818,0.11935938,0.11935938
2463164355,0,-0.10186905,3.2864993,10.318509,0.1219818,0.11935938,0.11935938
2463164360,0,-0.10186905,3.2864993,10.318509,0.09815808,0.09064874,0.09064874
2463164365,0,-0.25748548,3.1356711,10.543554,0.09815808,0.09064874,0.09064874
2463164370,0,-0.25748548,3.1356711,10.543554,0.103044994,0.07904231,0.07904231
2463164374,0,-0.3771904,2.994419,10.502854,0.103044994,0.07904231,0.07904231
2463164379,0,-0.3771904,2.994419,10.502854,0.125647,0.07965317,0.07965317
2463164384,0,-0.50168353,2.9609017,10.265839,0.125647,0.07965317,0.07965317
2463164389,0,-0.50168353,2.9609017,10.265839,0.16046628,0.08515096,0.08515096
2463164394,0,-0.5830829,2.9561136,9.832507,0.16046628,0.08515096,0.08515096
2463164398,0,-0.5830829,2.9561136,9.832507,0.18673345,0.09248133,0.09248133
2463164403,0,-0.5782947,2.989631,9.401569,0.18673345,0.09248133,0.09248133
2463164408,0,-0.5782947,2.989631,9.401569,0.1861226,0.091259606,0.091259606
2463164413,0,-0.60702384,3.013572,9.164553,0.1861226,0.091259606,0.091259606
2463164418,0,-0.60702384,3.013572,9.164553,0.15191418,0.08454009,0.08454009
2463164423,0,-0.7027879,3.0039957,9.205253,0.15191418,0.08454009,0.08454009
2463164427,0,-0.7027879,3.0039957,9.205253,0.08838424,0.082707494,0.082707494
2463164432,0,-0.7865813,2.9609017,9.447057,0.08838424,0.082707494,0.082707494
2463164437,0,-0.7865813,2.9609017,9.447057,0.015691347,0.08698355,0.08698355
2463164442,0,-0.9278331,2.9537196,9.772654,0.015691347,0.08698355,0.08698355
2463164447,0,-0.9278331,2.9537196,9.772654,-0.049060315,0.09675738,0.09675738
2463164451,0,-1.0523262,2.9513254,10.222745,-0.049060315,0.09675738,0.09675738
2463164456,0,-1.0523262,2.9513254,10.222745,-0.088155665,0.11141814,0.11141814
2463164461,0,-1.047538,2.8627439,10.838028,-0.088155665,0.11141814,0.11141814
2463164466,0,-1.047538,2.8627439,10.838028,-0.07838183,0.12852235,0.12852235
2463164471,0,-0.9709269,2.6927629,11.388671,-0.07838183,0.12852235,0.12852235
2463164475,0,-0.9709269,2.6927629,11.388671,-0.014241025,0.1450157,0.1450157
2463164480,0,-0.8847393,2.5419345,11.707086,-0.014241025,0.1450157,0.1450157
2463164485,0,-0.8847393,2.5419345,11.707086,0.08410819,0.16334164,0.16334164
2463164490,0,-0.8871335,2.5347524,11.790879,0.08410819,0.16334164,0.16334164
2463164495,0,-0.8871335,2.5347524,11.790879,0.19345297,0.18960883,0.18960883
2463164500,0,-0.84643376,2.6353042,11.620898,0.19345297,0.18960883,0.18960883
2463164504,0,-0.84643376,2.6353042,11.620898,0.29058045,0.21404341,0.21404341
2463164509,0,-0.77700484,2.6831863,11.139685,0.29058045,0.21404341,0.21404341
2463164514,0,-0.77700484,2.6831863,11.139685,0.35777557,0.23298022,0.23298022
2463164519,0,-0.7650343,2.67361,10.50046,0.35777557,0.23298022,0.23298022
2463164524,0,-0.7650343,2.67361,10.50046,0.39992526,0.25497136,0.25497136
2463164528,0,-0.7674285,2.6903687,9.741531,0.39992526,0.25497136,0.25497136
2463164533,0,-0.7674285,2.6903687,9.741531,0.42558157,0.2800168,0.2800168
2463164538,0,-0.7722167,2.8388028,9.056819,0.42558157,0.2800168,0.2800168
2463164543,0,-0.7722167,2.8388028,9.056819,0.4268033,0.29834273,0.29834273
2463164548,0,-0.76024616,2.9824486,8.623487,0.4268033,0.29834273,0.29834273
2463164552,0,-0.76024616,2.9824486,8.623487,0.414586,0.3130035,0.3130035
2463164557,0,-0.58068883,3.1572177,8.35056,0.414586,0.3130035,0.3130035
2463164562,0,-0.58068883,3.1572177,8.35056,0.3956492,0.31422523,0.31422523
2463164567,0,-0.32212612,3.2434056,8.261978,0.3956492,0.31422523,0.31422523
2463164572,0,-0.32212612,3.2434056,8.261978,0.37671238,0.29284495,0.29284495
2463164576,0,-0.17848021,3.2721345,8.288313,0.37671238,0.29284495,0.29284495
2463164581,0,-0.17848021,3.2721345,8.288313,0.3571647,0.2623017,0.2623017
2463164586,0,-0.17608611,3.2984698,8.566028,0.3571647,0.2623017,0.2623017
2463164591,0,-0.17608611,3.2984698,8.566028,0.34433657,0.24275406,0.24275406
2463164596,0,-0.16890381,3.260164,8.956267,0.34433657,0.24275406,0.24275406
2463164601,0,-0.16890381,3.260164,8.956267,0.34372568,0.23542368,0.23542368
2463164605,0,-0.10426315,3.1620061,9.1334305,0.34372568,0.23542368,0.23542368
2463164615,0,-0.039622486,3.1548238,9.205253,0.34372568,0.23542368,0.23542368
2463164610,0,-0.039622486,3.1548238,9.205253,0.35533214,0.23359108,0.23359108
2463164620,0,-0.039622486,3.1548238,9.205253,0.3748798,0.22931503,0.22931503
2463164625,0,0.025018185,3.2170703,9.131036,0.3748798,0.22931503,0.22931503
2463164629,0,0.025018185,3.2170703,9.131036,0.3852645,0.22503898,0.22503898
2463164634,0,0.14951131,3.3319871,8.872473,0.3852645,0.22503898,0.22503898
2463164639,0,0.14951131,3.3319871,8.872473,0.37671238,0.21159995,0.21159995
2463164644,0,0.23330477,3.425357,8.575605,0.37671238,0.21159995,0.21159995
2463164649,0,0.23330477,3.425357,8.575605,0.35472125,0.19144142,0.19144142
2463164653,0,0.24527529,3.5019681,8.336195,0.35472125,0.19144142,0.19144142
2463164658,0,0.24527529,3.5019681,8.336195,0.33211926,0.1676177,0.1676177
2463164663,0,0.23091069,3.576185,8.156637,0.33211926,0.1676177,0.1676177
2463164668,0,0.23091069,3.576185,8.156637,0.30829555,0.14012878,0.14012878
2463164673,0,0.2596399,3.6360376,8.094391,0.30829555,0.14012878,0.14012878
2463164678,0,0.2596399,3.6360376,8.094391,0.28263924,0.10653122,0.10653122
2463164682,0,0.26921624,3.7030723,8.156637,0.28263924,0.10653122,0.10653122
2463164687,0,0.26921624,3.7030723,8.156637,0.2514851,0.0723228,0.0723228
2463164692,0,0.24527529,3.7557425,8.202125,0.2514851,0.0723228,0.0723228
2463164697,0,0.24527529,3.7557425,8.202125,0.20811373,0.038114376,0.038114376
2463164702,0,0.24048707,3.813201,8.302678,0.20811373,0.038114376,0.038114376
2463164706,0,0.24048707,3.813201,8.302678,0.15069245,0.005127681,0.005127681
2463164711,0,0.21654609,3.8778415,8.50857,0.15069245,0.005127681,0.005127681
2463164716,0,0.21654609,3.8778415,8.50857,0.08349732,-0.025415555,-0.025415555
2463164721,0,0.23091069,3.880236,8.764739,0.08349732,-0.025415555,-0.025415555
2463164726,0,0.23091069,3.880236,8.764739,0.01874567,-0.056569654,-0.056569654
2463164730,0,0.19260511,3.8371418,8.879655,0.01874567,-0.056569654,-0.056569654
2463164735,0,0.19260511,3.8371418,8.879655,-0.044784263,-0.08405857,-0.08405857
2463164740,0,0.10162935,3.7988362,8.996966,-0.044784263,-0.08405857,-0.08405857
2463164750,0,0.0106536,3.717437,9.336928,-0.044784263,-0.08405857,-0.08405857
2463164745,0,0.0106536,3.717437,9.336928,-0.10587074,-0.10299538,-0.10299538
2463164755,0,0.0106536,3.717437,9.336928,-0.13641398,-0.108493164,-0.108493164
2463164759,0,-0.07553396,3.6360376,9.691255,-0.13641398,-0.108493164,-0.108493164
2463164764,0,-0.07553396,3.6360376,9.691255,-0.12114236,-0.105438836,-0.105438836
2463164769,0,-0.17608611,3.5809734,10.004882,-0.12114236,-0.105438836,-0.105438836
2463164774,0,-0.17608611,3.5809734,10.004882,-0.05639069,-0.102384515,-0.102384515
2463164779,0,-0.30297333,3.523515,10.251474,-0.05639069,-0.102384515,-0.102384515
2463164783,0,-0.30297333,3.523515,10.251474,0.054175824,-0.09688673,-0.09688673
2463164788,0,-0.35324943,3.478027,10.462155,0.054175824,-0.09688673,-0.09688673
2463164793,0,-0.35324943,3.478027,10.462155,0.18917692,-0.08955635,-0.08955635
2463164798,0,-0.33649075,3.449298,10.426243,0.18917692,-0.08955635,-0.08955635
2463164803,0,-0.33649075,3.449298,10.426243,0.3229563,-0.08650203,-0.08650203
2463164807,0,-0.27185005,3.4756331,9.947423,0.3229563,-0.08650203,-0.08650203
2463164812,0,-0.27185005,3.4756331,9.947423,0.40969908,-0.09077808,-0.09077808
2463164817,0,-0.25748548,3.5642145,9.353687,0.40969908,-0.09077808,-0.09077808
2463164822,0,-0.25748548,3.5642145,9.353687,0.43169022,-0.09933019,-0.09933019
2463164827,0,-0.28142646,3.7222252,8.714463,0.43169022,-0.09933019,-0.09933019
2463164831,0,-0.28142646,3.7222252,8.714463,0.38221017,-0.111547485,-0.111547485
2463164836,0,-0.25509137,3.8826299,8.408018,0.38221017,-0.111547485,-0.111547485
2463164841,0,-0.25509137,3.8826299,8.408018,0.28386095,-0.13109516,-0.13109516
2463164846,0,-0.31733793,3.8778415,8.534905,0.28386095,-0.13109516,-0.13109516
2463164851,0,-0.31733793,3.8778415,8.534905,0.18978779,-0.14514504,-0.14514504
2463164856,0,-0.3963432,3.7557425,8.745586,0.18978779,-0.14514504,-0.14514504
2463164860,0,-0.3963432,3.7557425,8.745586,0.12931217,-0.15125369,-0.15125369
2463164865,0,-0.56153595,3.547456,9.030484,0.12931217,-0.15125369,-0.15125369
2463164870,0,-0.56153595,3.547456,9.030484,0.11709489,-0.14209072,-0.14209072
2463164875,0,-0.7698226,3.4109924,9.1861,0.11709489,-0.14209072,-0.14209072
2463164880,0,-0.7698226,3.4109924,9.1861,0.14824899,-0.11582354,-0.11582354
2463164884,0,-0.90628624,3.3678985,9.222011,0.14824899,-0.11582354,-0.11582354
2463164889,0,-0.90628624,3.3678985,9.222011,0.2032268,-0.08466943,-0.08466943
2463164894,0,-0.90628624,3.3918395,9.138218,0.2032268,-0.08466943,-0.08466943
2463164899,0,-0.90628624,3.3918395,9.138218,0.2588155,-0.05595879,-0.05595879
2463164904,0,-0.7841872,3.4684508,8.973025,0.2588155,-0.05595879,-0.05595879
2463164908,0,-0.7841872,3.4684508,8.973025,0.28813702,-0.041298036,-0.041298036
2463164913,0,-0.56153595,3.576185,8.826985,0.28813702,-0.041298036,-0.041298036
2463164918,0,-0.56153595,3.576185,8.826985,0.27530885,-0.040687174,-0.040687174
2463164923,0,-0.33888483,3.69589,8.712068,0.27530885,-0.040687174,-0.040687174
2463164928,0,-0.33888483,3.69589,8.712068,0.22094189,-0.05595879,-0.05595879
2463164933,0,-0.22875628,3.7246194,8.594758,0.22094189,-0.05595879,-0.05595879
2463164937,0,-0.22875628,3.7246194,8.594758,0.14763811,-0.07856079,-0.07856079
2463164942,0,-0.29579103,3.7318015,8.609122,0.14763811,-0.07856079,-0.07856079
2463164947,0,-0.29579103,3.7318015,8.609122,0.08594078,-0.0938324,-0.0938324
2463164952,0,-0.3987373,3.669555,8.786285,0.08594078,-0.0938324,-0.0938324
2463164957,0,-0.3987373,3.669555,8.786285,0.06333879,-0.09810846,-0.09810846
2463164961,0,-0.48013666,3.552244,8.872473,0.06333879,-0.09810846,-0.09810846
2463164966,0,-0.48013666,3.552244,8.872473,0.080443,-0.095054135,-0.095054135
2463164971,0,-0.55195963,3.4947858,8.865291,0.080443,-0.095054135,-0.095054135
2463164976,0,-0.55195963,3.4947858,8.865291,0.13114478,-0.0852803,-0.0852803
2463164981,0,-0.56153595,3.54985,8.769527,0.13114478,-0.0852803,-0.0852803
2463164985,0,-0.56153595,3.54985,8.769527,0.19711816,-0.07733906,-0.07733906
2463164990,0,-0.47774255,3.600126,8.652216,0.19711816,-0.07733906,-0.07733906
2463164995,0,-0.47774255,3.600126,8.652216,0.25515032,-0.08039338,-0.08039338
2463165000,0,-0.28142646,3.6551902,8.479841,0.25515032,-0.08039338,-0.08039338
2463165005,0,-0.28142646,3.6551902,8.479841,0.28019577,-0.095054135,-0.095054135
2463165010,0,-0.16650972,3.6815255,8.410412,0.28019577,-0.095054135,-0.095054135
2463165014,0,-0.16650972,3.6815255,8.410412,0.26981106,-0.113380075,-0.113380075
2463165019,0,-0.13059823,3.7389839,8.527723,0.26981106,-0.113380075,-0.113380075
2463165024,0,-0.13059823,3.7389839,8.527723,0.2435439,-0.1286517,-0.1286517
2463165029,0,-0.13778053,3.7270133,8.774315,0.2435439,-0.1286517,-0.1286517
2463165034,0,-0.13778053,3.7270133,8.774315,0.2258288,-0.14025813,-0.14025813
2463165038,0,-0.16650972,3.6767373,8.915567,0.2258288,-0.14025813,-0.14025813
2463165043,0,-0.16650972,3.6767373,8.915567,0.2258288,-0.14147985,-0.14147985
2463165048,0,-0.22875628,3.6791313,8.781497,0.2258288,-0.14147985,-0.14147985
2463165053,0,-0.22875628,3.6791313,8.781497,0.23987868,-0.12742996,-0.12742996
2463165058,0,-0.22157398,3.7341957,8.386471,0.23987868,-0.12742996,-0.12742996
2463165062,0,-0.22157398,3.7341957,8.386471,0.25392857,-0.10666057,-0.10666057
2463165067,0,-0.14735693,3.9736054,7.905257,0.25392857,-0.10666057,-0.10666057
2463165072,0,-0.14735693,3.9736054,7.905257,0.25392857,-0.095054135,-0.095054135
2463165077,0,0.013047695,4.22738,7.605995,0.25392857,-0.095054135,-0.095054135
2463165082,0,0.013047695,4.22738,7.605995,0.23743524,-0.101162784,-0.101162784
2463165086,0,0.22133428,4.423696,7.629936,0.23743524,-0.101162784,-0.101162784
2463165091,0,0.22133428,4.423696,7.629936,0.20994632,-0.124986514,-0.124986514
2463165096,0,0.40328583,4.514672,7.9196224,0.20994632,-0.124986514,-0.124986514
2463165101,0,0.40328583,4.514672,7.9196224,0.18062481,-0.1579732,-0.1579732
2463165106,0,0.47750285,4.521854,8.379289,0.18062481,-0.1579732,-0.1579732
2463165111,0,0.47750285,4.521854,8.379289,0.16046628,-0.19340336,-0.19340336
2463165115,0,0.46313825,4.490731,8.755162,0.16046628,-0.19340336,-0.19340336
2463165120,0,0.46313825,4.490731,8.755162,0.13908601,-0.22639005,-0.22639005
2463165125,0,0.4200445,4.4380603,9.035272,0.13908601,-0.22639005,-0.22639005
2463165130,0,0.4200445,4.4380603,9.035272,0.115262285,-0.2532681,-0.2532681
2463165135,0,0.37455663,4.366237,9.243558,0.115262285,-0.2532681,-0.2532681
2463165139,0,0.37455663,4.366237,9.243558,0.09815808,-0.27464837,-0.27464837
2463165144,0,0.30033952,4.323144,9.413539,0.09815808,-0.27464837,-0.27464837
2463165149,0,0.30033952,4.323144,9.413539,0.096936345,-0.2893091,-0.2893091
2463165154,0,0.25724575,4.299203,9.468604,0.096936345,-0.2893091,-0.2893091
2463165159,0,0.25724575,4.299203,9.468604,0.11953834,-0.29786122,-0.29786122
2463165163,0,0.25724575,4.28005,9.420722,0.11953834,-0.29786122,-0.29786122
2463165168,0,0.25724575,4.28005,9.420722,0.16046628,-0.30824593,-0.30824593
2463165173,0,0.27400446,4.318355,9.212435,0.16046628,-0.30824593,-0.30824593
2463165183,0,0.23091069,4.3877845,9.1334305,0.16046628,-0.30824593,-0.30824593
2463165178,0,0.23091069,4.3877845,9.1334305,0.20994632,-0.32168496,-0.32168496
2463165188,0,0.23091069,4.3877845,9.1334305,0.26492414,-0.33695656,-0.33695656
2463165192,0,0.27639857,4.459607,9.042454,0.26492414,-0.33695656,-0.33695656
2463165197,0,0.27639857,4.459607,9.042454,0.31684765,-0.35650423,-0.35650423
2463165202,0,0.33146283,4.4428487,8.93472,0.31684765,-0.35650423,-0.35650423
2463165207,0,0.33146283,4.4428487,8.93472,0.34800175,-0.38277143,-0.38277143
2463165212,0,0.35300967,4.459607,8.731221,0.34800175,-0.38277143,-0.38277143
2463165216,0,0.35300967,4.459607,8.731221,0.34494743,-0.4108712,-0.4108712
2463165221,0,0.31949237,4.469184,8.657004,0.34494743,-0.4108712,-0.4108712
2463165226,0,0.31949237,4.469184,8.657004,0.32539976,-0.43530577,-0.43530577
2463165231,0,0.38173887,4.507489,8.585181,0.32539976,-0.43530577,-0.43530577
2463165236,0,0.38173887,4.507489,8.585181,0.29485652,-0.46157297,-0.46157297
2463165240,0,0.36019203,4.545795,8.261978,0.29485652,-0.46157297,-0.46157297
2463165245,0,0.36019203,4.545795,8.261978,0.2514851,-0.48539668,-0.48539668
2463165250,0,0.26682216,4.5481887,8.087209,0.2514851,-0.48539668,-0.48539668
2463165255,0,0.26682216,4.5481887,8.087209,0.21483324,-0.5049443,-0.5049443
2463165260,0,0.10641754,4.5649476,8.022568,0.21483324,-0.5049443,-0.5049443
2463165265,0,0.10641754,4.5649476,8.022568,0.1946747,-0.52204853,-0.52204853
2463165269,0,-0.09947495,4.5003066,7.96511,0.1946747,-0.52204853,-0.52204853
2463165274,0,-0.09947495,4.5003066,7.96511,0.18551174,-0.5354876,-0.5354876
2463165279,0,-0.30297333,4.3806024,7.9435625,0.18551174,-0.5354876,-0.5354876
2463165284,0,-0.30297333,4.3806024,7.9435625,0.17268357,-0.5354876,-0.5354876
2463165289,0,-0.47534847,4.2728677,7.9339867,0.17268357,-0.5354876,-0.5354876
2463165298,0,-0.60462976,4.2034388,7.996233,0.17268357,-0.5354876,-0.5354876
2463165293,0,-0.60462976,4.2034388,7.996233,0.14824899,-0.5214377,-0.5214377
2463165303,0,-0.60462976,4.2034388,7.996233,0.115262285,-0.4957814,-0.4957814
2463165308,0,-0.63575304,4.205833,8.053692,0.115262285,-0.4957814,-0.4957814
2463165313,0,-0.63575304,4.205833,8.053692,0.081664726,-0.46951422,-0.46951422
2463165317,0,-0.5567478,4.2393503,8.027356,0.081664726,-0.46951422,-0.46951422
2463165322,0,-0.5567478,4.2393503,8.027356,0.042569395,-0.45241,-0.45241
2463165327,0,-0.47295433,4.3015966,7.9818687,0.042569395,-0.45241,-0.45241
2463165332,0,-0.47295433,4.3015966,7.9818687,-0.0020237311,-0.44507962,-0.44507962
2463165337,0,-0.46337795,4.3399024,8.089603,-0.0020237311,-0.44507962,-0.44507962
2463165341,0,-0.46337795,4.3399024,8.089603,-0.040508207,-0.4401927,-0.4401927
2463165346,0,-0.49928942,4.37342,8.424777,-0.040508207,-0.4401927,-0.4401927
2463165351,0,-0.49928942,4.37342,8.424777,-0.057001553,-0.43225145,-0.43225145
2463165356,0,-0.49210715,4.371026,8.836562,-0.057001553,-0.43225145,-0.43225145
2463165366,0,-0.48731893,4.3351145,9.140612,-0.057001553,-0.43225145,-0.43225145
2463165361,0,-0.48731893,4.3351145,9.140612,-0.04967118,-0.42247763,-0.42247763
2463165370,0,-0.48731893,4.3351145,9.140612,-0.024625726,-0.41026032,-0.41026032
2463165375,0,-0.49689534,4.3351145,9.229194,-0.024625726,-0.41026032,-0.41026032
2463165380,0,-0.49689534,4.3351145,9.229194,0.00591751,-0.3931561,-0.3931561
2463165385,0,-0.48253074,4.3877845,9.157371,0.00591751,-0.3931561,-0.3931561
2463165390,0,-0.48253074,4.3877845,9.157371,0.032184694,-0.37727365,-0.37727365
2463165394,0,-0.43225467,4.4955187,8.932326,0.032184694,-0.37727365,-0.37727365
2463165399,0,-0.43225467,4.4955187,8.932326,0.043791123,-0.36627808,-0.36627808
2463165404,0,-0.34606713,4.596071,8.556452,0.043791123,-0.36627808,-0.36627808
2463165409,0,-0.34606713,4.596071,8.556452,0.032184694,-0.36688894,-0.36688894
2463165414,0,-0.28621465,4.6942286,8.264372,0.032184694,-0.36688894,-0.36688894
2463165423,0,-0.31015563,4.7277465,8.247613,0.032184694,-0.36688894,-0.36688894
2463165418,0,-0.31015563,4.7277465,8.247613,0.0010305925,-0.3778845,-0.3778845
2463165428,0,-0.31015563,4.7277465,8.247613,-0.03256697,-0.3919344,-0.3919344
2463165433,0,-0.31254974,4.6798644,8.283525,-0.03256697,-0.3919344,-0.3919344
2463165438,0,-0.31254974,4.6798644,8.283525,-0.060055878,-0.40354082,-0.40354082
2463165443,0,-0.31254974,4.653529,8.441535,-0.060055878,-0.40354082,-0.40354082
2463165452,0,-0.49450126,4.605647,8.822197,-0.060055878,-0.40354082,-0.40354082
2463165447,0,-0.49450126,4.605647,8.822197,-0.08143615,-0.41820157,-0.41820157
2463165457,0,-0.49450126,4.605647,8.822197,-0.07654923,-0.42369935,-0.42369935
2463165462,0,-0.67645276,4.488336,9.066395,-0.07654923,-0.42369935,-0.42369935
2463165467,0,-0.67645276,4.488336,9.066395,-0.04844945,-0.41514724,-0.41514724
2463165471,0,-0.8224927,4.3255377,9.056819,-0.04844945,-0.41514724,-0.41514724
2463165481,0,-0.96135044,4.220197,8.867685,-0.04844945,-0.41514724,-0.41514724
2463165476,0,-0.96135044,4.220197,8.867685,-0.014241025,-0.39437786,-0.39437786
2463165486,0,-0.96135044,4.220197,8.867685,0.013247889,-0.36322376,-0.36322376
2463165491,0,-1.0403558,4.153163,8.575605,0.013247889,-0.36322376,-0.36322376
2463165500,0,-0.97810924,4.1651335,8.290707,0.013247889,-0.36322376,-0.36322376
2463165495,0,-0.97810924,4.1651335,8.290707,0.023632586,-0.32412842,-0.32412842
2463165505,0,-0.97810924,4.1651335,8.290707,0.01080443,-0.2948069,-0.2948069
2463165510,0,-0.8368573,4.2154093,8.144667,0.01080443,-0.2948069,-0.2948069
2463165515,0,-0.8368573,4.2154093,8.144667,-0.021571402,-0.280757,-0.280757
2463165519,0,-0.7578521,4.2489266,8.139879,-0.021571402,-0.280757,-0.280757
2463165524,0,-0.7578521,4.2489266,8.139879,-0.060055878,-0.27525923,-0.27525923
2463165529,0,-0.7291229,4.3015966,8.235643,-0.060055878,-0.27525923,-0.27525923
2463165534,0,-0.7291229,4.3015966,8.235643,-0.09059912,-0.27525923,-0.27525923
2463165539,0,-0.74827564,4.344691,8.391259,-0.09059912,-0.27525923,-0.27525923
2463165544,0,-0.74827564,4.344691,8.391259,-0.107703336,-0.27648097,-0.27648097
2463165548,0,-0.84643376,4.3015966,8.546876,-0.107703336,-0.27648097,-0.27648097
2463165553,0,-0.84643376,4.3015966,8.546876,-0.10403815,-0.26976144,-0.26976144
2463165558,0,-0.95895636,4.229774,8.506176,-0.10403815,-0.26976144,-0.26976144
2463165563,0,-0.95895636,4.229774,8.506176,-0.088155665,-0.25021377,-0.25021377
2463165568,0,-1.0068383,4.229774,8.340983,-0.088155665,-0.25021377,-0.25021377
2463165572,0,-1.0068383,4.229774,8.340983,-0.07349491,-0.22333573,-0.22333573
2463165577,0,-0.88952756,4.253715,8.132696,-0.07349491,-0.22333573,-0.22333573
2463165582,0,-0.88952756,4.253715,8.132696,-0.072884046,-0.20562065,-0.20562065
2463165587,0,-0.72194064,4.2872324,7.898075,-0.072884046,-0.20562065,-0.20562065
2463165592,0,-0.72194064,4.2872324,7.898075,-0.08998826,-0.20195547,-0.20195547
2463165596,0,-0.52323043,4.382996,7.8477993,-0.08998826,-0.20195547,-0.20195547
2463165601,0,-0.52323043,4.382996,7.8477993,-0.11442284,-0.21111843,-0.21111843
2463165606,0,-0.45858976,4.497913,8.039327,-0.11442284,-0.21111843,-0.21111843
2463165616,0,-0.45858976,4.512277,8.352954,-0.11442284,-0.21111843,-0.21111843
2463165611,0,-0.45858976,4.512277,8.352954,-0.13519225,-0.23494215,-0.23494215
2463165621,0,-0.45858976,4.512277,8.352954,-0.14313349,-0.26487452,-0.26487452
2463165625,0,-0.6118121,4.3782077,8.618699,-0.14313349,-0.26487452,-0.26487452
2463165630,0,-0.6118121,4.3782077,8.618699,-0.13458139,-0.2825896,-0.2825896
2463165635,0,-0.8129164,4.2321677,8.798256,-0.13458139,-0.2825896,-0.2825896
2463165640,0,-0.8129164,4.2321677,8.798256,-0.11442284,-0.28197876,-0.28197876
2463165645,0,-1.0164148,4.17471,8.810226,-0.11442284,-0.28197876,-0.28197876
2463165649,0,-1.0164148,4.17471,8.810226,-0.09365345,-0.25937673,-0.25937673
2463165654,0,-1.0642967,4.201045,8.628275,-0.09365345,-0.25937673,-0.25937673
2463165659,0,-1.0642967,4.201045,8.628275,-0.080214426,-0.23127697,-0.23127697
2463165664,0,-1.0092325,4.2561088,8.400836,-0.080214426,-0.23127697,-0.23127697
2463165669,0,-1.0092325,4.2561088,8.400836,-0.0771601,-0.21050757,-0.21050757
2463165673,0,-0.93262136,4.3590555,8.209308,-0.0771601,-0.21050757,-0.21050757
2463165678,0,-0.93262136,4.3590555,8.209308,-0.085101336,-0.20500979,-0.20500979
2463165683,0,-0.8560101,4.445243,8.032145,-0.085101336,-0.20500979,-0.20500979
2463165688,0,-0.8560101,4.445243,8.032145,-0.11442284,-0.21234016,-0.21234016
2463165693,0,-0.8943157,4.459607,7.8717403,-0.11442284,-0.21234016,-0.21234016
2463165698,0,-0.8943157,4.459607,7.8717403,-0.1639029,-0.222114,-0.222114
2463165702,0,-0.94459176,4.476366,7.931592,-0.1639029,-0.222114,-0.222114
2463165707,0,-0.94459176,4.476366,7.931592,-0.22193503,-0.22761178,-0.22761178
2463165712,0,-1.0044442,4.421302,8.240431,-0.22193503,-0.22761178,-0.22761178
2463165717,0,-1.0044442,4.421302,8.240431,-0.26652816,-0.23188783,-0.23188783
2463165722,0,-1.1241492,4.2968087,8.633063,-0.26652816,-0.23188783,-0.23188783
2463165726,0,-1.1241492,4.2968087,8.633063,-0.2817998,-0.22761178,-0.22761178
2463165731,0,-1.263007,4.201045,9.04006,-0.2817998,-0.22761178,-0.22761178
2463165741,0,-1.3659533,4.1459804,9.432692,-0.2817998,-0.22761178,-0.22761178
2463165736,0,-1.3659533,4.1459804,9.432692,-0.26530644,-0.21295103,-0.21295103
2463165750,0,-1.3683473,4.095704,9.6433735,-0.26530644,-0.21295103,-0.21295103
2463165746,0,-1.3683473,4.095704,9.6433735,-0.22132418,-0.18851644,-0.18851644
2463165755,0,-1.3683473,4.095704,9.6433735,-0.16207029,-0.1598058,-0.1598058
2463165760,0,-1.3252535,4.035852,9.66492,-0.16207029,-0.1598058,-0.1598058
2463165765,0,-1.3252535,4.035852,9.66492,-0.09915123,-0.12987342,-0.12987342
2463165770,0,-1.2127309,4.0693693,9.461421,-0.09915123,-0.12987342,-0.12987342
2463165774,0,-1.2127309,4.0693693,9.461421,-0.045395125,-0.10360624,-0.10360624
2463165779,0,-1.023597,4.1603446,9.075971,-0.045395125,-0.10360624,-0.10360624
2463165784,0,-1.023597,4.1603446,9.075971,-0.0148518905,-0.09077808,-0.09077808
2463165789,0,-0.80573404,4.3159614,8.774315,-0.0148518905,-0.09077808,-0.09077808
2463165799,0,-0.8009459,4.3877845,8.709674,-0.0148518905,-0.09077808,-0.09077808
2463165794,0,-0.8009459,4.3877845,8.709674,-0.007521514,-0.0974976,-0.0974976
2463165803,0,-0.8009459,4.3877845,8.709674,-0.006910649,-0.11276922,-0.11276922
2463165808,0,-0.8512219,4.3638434,8.645034,-0.006910649,-0.11276922,-0.11276922
2463165813,0,-0.8512219,4.3638434,8.645034,-0.009354108,-0.1286517,-0.1286517
2463165818,0,-0.93501544,4.3207498,8.532511,-0.009354108,-0.1286517,-0.1286517
2463165823,0,-0.93501544,4.3207498,8.532511,-0.023403997,-0.13842553,-0.13842553
2463165827,0,-1.0547204,4.2704735,8.470264,-0.023403997,-0.13842553,-0.13842553
2463165832,0,-1.0547204,4.2704735,8.470264,-0.044784263,-0.13659294,-0.13659294
2463165837,0,-1.0882378,4.2417445,8.477447,-0.044784263,-0.13659294,-0.13659294
2463165842,0,-1.0882378,4.2417445,8.477447,-0.07044058,-0.13170601,-0.13170601
2463165847,0,-1.0762672,4.229774,8.594758,-0.07044058,-0.13170601,-0.13170601
2463165851,0,-1.0762672,4.229774,8.594758,-0.0979295,-0.12926257,-0.12926257
2463165856,0,-1.0547204,4.2345624,8.779103,-0.0979295,-0.12926257,-0.12926257
2463165861,0,-1.0547204,4.2345624,8.779103,-0.12114236,-0.12804084,-0.12804084
2463165866,0,-1.0116266,4.2249856,8.982602,-0.12114236,-0.12804084,-0.12804084
2463165871,0,-1.0116266,4.2249856,8.982602,-0.14007917,-0.1268191,-0.1268191
2463165876,0,-1.0116266,4.13401,9.016119,-0.14007917,-0.1268191,-0.1268191
2463165885,0,-0.93501544,4.1028867,8.953872,-0.14007917,-0.1268191,-0.1268191
2463165880,0,-0.93501544,4.1028867,8.953872,-0.15412906,-0.12315391,-0.12315391
2463165890,0,-0.93501544,4.1028867,8.953872,-0.16695721,-0.11948872,-0.11948872
2463165895,0,-0.8368573,4.083734,8.870079,-0.16695721,-0.11948872,-0.11948872
2463165900,0,-0.8368573,4.083734,8.870079,-0.18283969,-0.11887786,-0.11887786
2463165904,0,-0.7722167,4.0023346,8.736009,-0.18283969,-0.11887786,-0.11887786
2463165909,0,-0.7722167,4.0023346,8.736009,-0.19811131,-0.121932186,-0.121932186
2463165914,0,-0.8368573,3.9712117,8.56124,-0.19811131,-0.121932186,-0.121932186
2463165919,0,-0.8368573,3.9712117,8.56124,-0.21338293,-0.12559737,-0.12559737
2463165924,0,-1.0140207,3.9520586,8.515752,-0.21338293,-0.12559737,-0.12559737
2463165928,0,-1.0140207,3.9520586,8.515752,-0.22621109,-0.121932186,-0.121932186
2463165933,0,-1.0978141,3.889812,8.587575,-0.22621109,-0.121932186,-0.121932186
2463165938,0,-1.0978141,3.889812,8.587575,-0.23170887,-0.10971489,-0.10971489
2463165943,0,-1.1576666,3.813201,8.822197,-0.23170887,-0.10971489,-0.10971489
2463165948,0,-1.1576666,3.813201,8.822197,-0.22376764,-0.09261068,-0.09261068
2463165953,0,-1.119361,3.8610828,9.066395,-0.22376764,-0.09261068,-0.09261068
2463165957,0,-1.119361,3.8610828,9.066395,-0.21155034,-0.08161511,-0.08161511
2463165962,0,-1.0595086,3.863477,9.193282,-0.21155034,-0.08161511,-0.08161511
2463165967,0,-1.0595086,3.863477,9.193282,-0.19872218,-0.07917166,-0.07917166
2463165972,0,-1.0068383,3.8515065,9.104701,-0.19872218,-0.07917166,-0.07917166
2463165977,0,-1.0068383,3.8515065,9.104701,-0.1895592,-0.07856079,-0.07856079
2463165981,0,-0.9230449,3.8993886,8.9634495,-0.1895592,-0.07856079,-0.07856079
2463165986,0,-0.9230449,3.8993886,8.9634495,-0.18772662,-0.08650203,-0.08650203
2463165991,0,-1.0044442,3.9472706,8.855714,-0.18772662,-0.08650203,-0.08650203
2463166001,0,-1.1792135,3.940088,8.831773,-0.18772662,-0.08650203,-0.08650203
2463165996,0,-1.1792135,3.940088,8.831773,-0.18528315,-0.102384515,-0.102384515
2463166005,0,-1.1792135,3.940088,8.831773,-0.18406142,-0.113380075,-0.113380075
2463166010,0,-1.3563768,3.8706594,8.771921,-0.18406142,-0.113380075,-0.113380075
2463166015,0,-1.3563768,3.8706594,8.771921,-0.18711574,-0.11521267,-0.11521267
2463166020,0,-1.531146,3.762925,8.776709,-0.18711574,-0.11521267,-0.11521267
2463166025,0,-1.531146,3.762925,8.776709,-0.19078094,-0.105438836,-0.105438836
2463166029,0,-1.6963389,3.6456141,8.949084,-0.19078094,-0.105438836,-0.105438836
2463166034,0,-1.6963389,3.6456141,8.949084,-0.1846723,-0.076728195,-0.076728195
2463166039,0,-1.7585855,3.5163329,9.111883,-0.1846723,-0.076728195,-0.076728195
2463166044,0,-1.7585855,3.5163329,9.111883,-0.1687898,-0.03763285,-0.03763285
2463166049,0,-1.7514032,3.4397216,9.241164,-0.1687898,-0.03763285,-0.03763285
2463166054,0,-1.7514032,3.4397216,9.241164,-0.14191176,0.004516816,0.004516816
2463166058,0,-1.6484569,3.430145,9.250741,-0.14191176,0.004516816,0.004516816
2463166063,0,-1.6484569,3.430145,9.250741,-0.10953593,0.04422302,0.04422302
2463166068,0,-1.5215696,3.4852092,9.095124,-0.10953593,0.04422302,0.04422302
2463166073,0,-1.5215696,3.4852092,9.095124,-0.0875448,0.073544525,0.073544525
2463166078,0,-1.3420123,3.525909,8.8988085,-0.0875448,0.073544525,0.073544525
2463166087,0,-1.0714791,3.6312497,8.776709,-0.0875448,0.073544525,0.073544525
2463166082,0,-1.0714791,3.6312497,8.776709,-0.080214426,0.091259606,0.091259606
2463166092,0,-1.0714791,3.6312497,8.776709,-0.09059912,0.09431393,0.09431393
2463166097,0,-0.8296751,3.746166,8.719251,-0.09059912,0.09431393,0.09431393
2463166102,0,-0.8296751,3.746166,8.719251,-0.11625544,0.07720971,0.07720971
2463166106,0,-0.76264036,3.7964423,8.606728,-0.11625544,0.07720971,0.07720971
2463166116,0,-0.9110744,3.767713,8.539693,-0.11625544,0.07720971,0.07720971
2463166111,0,-0.9110744,3.767713,8.539693,-0.14374435,0.045444753,0.045444753
2463166121,0,-0.9110744,3.767713,8.539693,-0.16145943,0.02162103,0.02162103
2463166126,0,-1.0690849,3.7030723,8.551664,-0.16145943,0.02162103,0.02162103
2463166131,0,-1.0690849,3.7030723,8.551664,-0.1639029,0.012458058,0.012458058
2463166135,0,-1.1887898,3.5905497,8.592364,-0.1639029,0.012458058,0.012458058
2463166140,0,-1.1887898,3.5905497,8.592364,-0.15046386,0.019177571,0.019177571
2463166145,0,-1.2127309,3.4947858,8.573211,-0.15046386,0.019177571,0.019177571
2463166150,0,-1.2127309,3.4947858,8.573211,-0.12847273,0.038114376,0.038114376
2463166155,0,-1.1456962,3.4923918,8.400836,-0.12847273,0.038114376,0.038114376
2463166159,0,-1.1456962,3.4923918,8.400836,-0.113811985,0.06315983,0.06315983
2463166164,0,-0.97571504,3.6743433,8.190155,-0.113811985,0.06315983,0.06315983
2463166169,0,-0.97571504,3.6743433,8.190155,-0.12786187,0.08331836,0.08331836
2463166174,0,-0.65011764,3.887418,8.101574,-0.12786187,0.08331836,0.08331836
2463166179,0,-0.65011764,3.887418,8.101574,-0.16756807,0.08515096,0.08515096
2463166183,0,-0.1832684,4.138798,8.223672,-0.16756807,0.08515096,0.08515096
2463166188,0,-0.1832684,4.138798,8.223672,-0.22743282,0.052164264,0.052164264
2463166193,0,0.08247656,4.323144,8.544482,-0.22743282,0.052164264,0.052164264
2463166198,0,0.08247656,4.323144,8.544482,-0.29462793,-0.010143938,-0.010143938
2463166203,0,0.08726475,4.416514,9.001754,-0.29462793,-0.010143938,-0.010143938
2463166208,0,0.08726475,4.416514,9.001754,-0.34960577,-0.08100425,-0.08100425
2463166212,0,-0.11144544,4.2944145,9.468604,-0.34960577,-0.08100425,-0.08100425
2463166217,0,-0.11144544,4.2944145,9.468604,-0.37098604,-0.1390364,-0.1390364
2463166222,0,-0.391555,4.0741577,9.973758,-0.37098604,-0.1390364,-0.1390364
2463166227,0,-0.391555,4.0741577,9.973758,-0.34471884,-0.17080136,-0.17080136
2463166232,0,-0.6860292,3.7533486,10.423849,-0.34471884,-0.17080136,-0.17080136
2463166236,0,-0.6860292,3.7533486,10.423849,-0.27569112,-0.17202309,-0.17202309
2463166241,0,-0.9374095,3.4445097,10.629742,-0.27569112,-0.17202309,-0.17202309
2463166246,0,-0.9374095,3.4445097,10.629742,-0.17612018,-0.14636678,-0.14636678
2463166251,0,-1.0690849,3.2697406,10.548342,-0.17612018,-0.14636678,-0.14636678
2463166256,0,-1.0690849,3.2697406,10.548342,-0.07349491,-0.105438836,-0.105438836
2463166260,0,-0.9996561,3.284105,10.158104,-0.07349491,-0.105438836,-0.105438836
2463166265,0,-0.9996561,3.284105,10.158104,-0.0062997844,-0.07000868,-0.07000868
2463166270,0,-0.7817931,3.3607163,9.638585,-0.0062997844,-0.07000868,-0.07000868
2463166275,0,-0.7817931,3.3607163,9.638585,0.0034740514,-0.051682737,-0.051682737
2463166280,0,-0.53520095,3.4445097,9.190888,0.0034740514,-0.051682737,-0.051682737
2463166284,0,-0.53520095,3.4445097,9.190888,-0.042951666,-0.055347927,-0.055347927
2463166289,0,-0.49450126,3.4947858,9.037666,-0.042951666,-0.055347927,-0.055347927
2463166294,0,-0.49450126,3.4947858,9.037666,-0.12053149,-0.08344771,-0.08344771
2463166299,0,-0.63335896,3.5163329,9.181312,-0.12053149,-0.08344771,-0.08344771
2463166304,0,-0.63335896,3.5163329,9.181312,-0.18406142,-0.12376478,-0.12376478
2463166309,0,-0.9398036,3.329593,9.401569,-0.18406142,-0.12376478,-0.12376478
2463166313,0,-0.9398036,3.329593,9.401569,-0.21521552,-0.15247542,-0.15247542
2463166318,0,-1.3037066,3.1213062,9.564368,-0.21521552,-0.15247542,-0.15247542
2463166323,0,-1.3037066,3.1213062,9.564368,-0.20299824,-0.15064283,-0.15064283
2463166328,0,-1.6221218,2.8795023,9.605067,-0.20299824,-0.15064283,-0.15064283
2463166333,0,-1.6221218,2.8795023,9.605067,-0.14863127,-0.11948872,-0.11948872
2463166337,0,-1.7585855,2.750221,9.631402,-0.14863127,-0.11948872,-0.11948872
2463166342,0,-1.7585855,2.750221,9.631402,-0.06799713,-0.06939782,-0.06939782
2463166347,0,-1.6316981,2.7382505,9.528456,-0.06799713,-0.06939782,-0.06939782
2463166352,0,-1.6316981,2.7382505,9.528456,-0.0008020017,-0.02602642,-0.02602642
2463166357,0,-1.3898941,2.8555615,9.322564,-0.0008020017,-0.02602642,-0.02602642
2463166366,0,-1.2414601,2.9656901,9.121459,-0.0008020017,-0.02602642,-0.02602642
2463166361,0,-1.2414601,2.9656901,9.121459,0.02913037,-0.0052570193,-0.0052570193
2463166371,0,-1.2414601,2.9656901,9.121459,0.013858752,-0.00403529,-0.00403529
2463166376,0,-1.1983663,3.0710304,9.044848,0.013858752,-0.00403529,-0.00403529
2463166381,0,-1.1983663,3.0710304,9.044848,-0.030123508,-0.011365667,-0.011365667
2463166386,0,-1.2749774,3.0782125,9.054425,-0.030123508,-0.011365667,-0.011365667
2463166390,0,-1.2749774,3.0782125,9.054425,-0.082047015,-0.013809126,-0.013809126
2463166395,0,-1.3898941,3.0255425,9.164553,-0.082047015,-0.013809126,-0.013809126
2463166400,0,-1.3898941,3.0255425,9.164553,-0.12053149,0.0026842223,0.0026842223
2463166405,0,-1.4665054,2.9513254,9.351293,-0.12053149,0.0026842223,0.0026842223
2463166410,0,-1.4665054,2.9513254,9.351293,-0.13152705,0.033838324,0.033838324
2463166414,0,-1.3994707,2.9465373,9.698437,-0.13152705,0.033838324,0.033838324
2463166419,0,-1.3994707,2.9465373,9.698437,-0.10525987,0.060716372,0.060716372
2463166424,0,-1.3276477,2.8292263,9.741531,-0.10525987,0.060716372,0.060716372
2463166429,0,-1.3276477,2.8292263,9.741531,-0.025847454,0.10469863,0.10469863
2463166434,0,-1.0499321,2.8100736,9.470998,-0.025847454,0.10469863,0.10469863
2463166438,0,-1.0499321,2.8100736,9.470998,0.05234323,0.14623743,0.14623743
2463166443,0,-0.6166003,2.9656901,9.107095,0.05234323,0.14623743,0.14623743
2463166448,0,-0.6166003,2.9656901,9.107095,0.08227559,0.16211991,0.16211991
2463166453,0,-0.29579103,3.2888932,8.776709,0.08227559,0.16211991,0.16211991
2463166458,0,-0.29579103,3.2888932,8.776709,0.059673607,0.14257224,0.14257224
2463166462,0,-0.2072094,3.4804213,8.625881,0.059673607,0.14257224,0.14257224
2463166467,0,-0.2072094,3.4804213,8.625881,0.0053066453,0.09492479,0.09492479
2463166472,0,-0.30776155,3.499574,8.714463,0.0053066453,0.09492479,0.09492479
2463166477,0,-0.30776155,3.499574,8.714463,-0.0527255,0.04422302,0.04422302
2463166482,0,-0.49689534,3.382263,9.066395,-0.0527255,0.04422302,0.04422302
2463166487,0,-0.49689534,3.382263,9.066395,-0.08876653,0.013068922,0.013068922
2463166491,0,-0.61899436,3.284105,9.470998,-0.08876653,0.013068922,0.013068922
2463166496,0,-0.61899436,3.284105,9.470998,-0.11075766,-0.0034244251,-0.0034244251
2463166501,0,-0.72194064,3.0973654,9.724772,-0.11075766,-0.0034244251,-0.0034244251
2463166506,0,-0.72194064,3.0973654,9.724772,-0.124807544,-0.0046461546,-0.0046461546
2463166511,0,-0.7530639,2.9920251,9.748713,-0.124807544,-0.0046461546,-0.0046461546
2463166515,0,-0.7530639,2.9920251,9.748713,-0.13397051,0.010625463,0.010625463
2463166520,0,-0.77700484,2.9561136,9.698437,-0.13397051,0.010625463,0.010625463
2463166525,0,-0.77700484,2.9561136,9.698437,-0.13885744,0.036281783,0.036281783
2463166530,0,-0.70757604,3.0016015,9.662526,-0.13885744,0.036281783,0.036281783
2463166535,0,-0.70757604,3.0016015,9.662526,-0.13702483,0.06315983,0.06315983
2463166539,0,-0.62138844,3.066242,9.698437,-0.13702483,0.06315983,0.06315983
2463166544,0,-0.62138844,3.066242,9.698437,-0.11930977,0.09064874,0.09064874
2463166549,0,-0.50886583,3.1500356,9.844477,-0.11930977,0.09064874,0.09064874
2463166554,0,-0.50886583,3.1500356,9.844477,-0.08265788,0.11325073,0.11325073
2463166559,0,-0.3963432,3.2481935,9.834901,-0.08265788,0.11325073,0.11325073
2463166568,0,-0.31494385,3.3367753,9.86363,-0.08265788,0.11325073,0.11325073
2463166564,0,-0.31494385,3.3367753,9.86363,-0.028290913,0.11935938,0.11935938
2463166573,0,-0.31494385,3.3367753,9.86363,0.037682477,0.11019641,0.11019641
2463166578,0,-0.24790907,3.3750808,9.90433,0.037682477,0.11019641,0.11019641
2463166583,0,-0.24790907,3.3750808,9.90433,0.10854278,0.08881614,0.08881614
2463166588,0,-0.26227367,3.3248048,9.901936,0.10854278,0.08881614,0.08881614
2463166592,0,-0.26227367,3.3248048,9.901936,0.18062481,0.06621415,0.06621415
2463166597,0,-0.18566251,3.3391693,9.846871,0.18062481,0.06621415,0.06621415
2463166602,0,-0.18566251,3.3391693,9.846871,0.2362135,0.044833887,0.044833887
2463166607,0,-0.049198866,3.4157805,9.686467,0.2362135,0.044833887,0.044833887
2463166612,0,-0.049198866,3.4157805,9.686467,0.2569829,0.009403734,0.009403734
2463166616,0,0.13993493,3.54985,9.461421,0.2569829,0.009403734,0.009403734
2463166621,0,0.13993493,3.54985,9.461421,0.22827226,-0.049239278,-0.049239278
2463166626,0,0.23091069,3.6336436,9.348899,0.22827226,-0.049239278,-0.049239278
2463166631,0,0.23091069,3.6336436,9.348899,0.15680109,-0.121932186,-0.121932186
2463166636,0,0.15669364,3.595338,9.04006,0.15680109,-0.121932186,-0.121932186
2463166641,0,0.15669364,3.595338,9.04006,0.06883657,-0.17813174,-0.17813174
2463166645,0,-0.09708085,3.4612682,8.74798,0.06883657,-0.17813174,-0.17813174
2463166650,0,-0.09708085,3.4612682,8.74798,-0.03317783,-0.21661621,-0.21661621
2463166655,0,-0.513654,3.284105,8.657004,-0.03317783,-0.21661621,-0.21661621
2463166660,0,-0.513654,3.284105,8.657004,-0.11625544,-0.22272487,-0.22272487
2463166665,0,-0.8727689,3.1452472,8.762345,-0.11625544,-0.22272487,-0.22272487
2463166669,0,-0.8727689,3.1452472,8.762345,-0.15473992,-0.19645768,-0.19645768
2463166674,0,-1.1145728,2.9848428,8.977813,-0.15473992,-0.19645768,-0.19645768
2463166679,0,-1.1145728,2.9848428,8.977813,-0.14374435,-0.15125369,-0.15125369
2463166684,0,-1.1504843,2.8651378,9.126248,-0.14374435,-0.15125369,-0.15125369
2463166689,0,-1.1504843,2.8651378,9.126248,-0.09304258,-0.104217105,-0.104217105
2463166693,0,-0.9374095,2.893867,9.308199,-0.09304258,-0.104217105,-0.104217105
2463166703,0,-0.6596941,3.0016015,9.504515,-0.09304258,-0.104217105,-0.104217105
2463166698,0,-0.6596941,3.0016015,9.504515,-0.027680049,-0.07245214,-0.07245214
2463166708,0,-0.6596941,3.0016015,9.504515,0.040125936,-0.06267831,-0.06267831
2463166713,0,-0.3987373,3.1572177,9.696043,0.040125936,-0.06267831,-0.06267831
2463166717,0,-0.3987373,3.1572177,9.696043,0.09449289,-0.07917166,-0.07917166
2463166722,0,-0.2072094,3.2888932,9.7080145,0.09449289,-0.07917166,-0.07917166
2463166727,0,-0.2072094,3.2888932,9.7080145,0.115262285,-0.12315391,-0.12315391
2463166732,0,-0.14735693,3.4085982,9.655343,0.115262285,-0.12315391,-0.12315391
2463166737,0,-0.14735693,3.4085982,9.655343,0.095714614,-0.18179692,-0.18179692
2463166742,0,-0.20960349,3.3750808,9.67689,0.095714614,-0.18179692,-0.18179692
2463166746,0,-0.20960349,3.3750808,9.67689,0.052954093,-0.23738562,-0.23738562
2463166751,0,-0.3700081,3.2027059,9.609855,0.052954093,-0.23738562,-0.23738562
2463166761,0,-0.6166003,2.994419,9.38481,0.052954093,-0.23738562,-0.23738562
2463166756,0,-0.6166003,2.994419,9.38481,0.01080443,-0.2740375,-0.2740375
2463166770,0,-0.93501544,2.8148618,9.032878,0.01080443,-0.2740375,-0.2740375
2463166766,0,-0.93501544,2.8148618,9.032878,-0.018517079,-0.2844222,-0.2844222
2463166775,0,-0.93501544,2.8148618,9.032878,-0.02523659,-0.2636528,-0.2636528
2463166780,0,-1.2462482,2.7119155,8.738404,-0.02523659,-0.2636528,-0.2636528
2463166785,0,-1.2462482,2.7119155,8.738404,-0.013630161,-0.21539448,-0.21539448
2463166790,0,-1.3970765,2.6855803,8.518146,-0.013630161,-0.21539448,-0.21539448
2463166794,0,-1.3970765,2.6855803,8.518146,0.012026157,-0.15064283,-0.15064283
2463166799,0,-1.3324357,2.7406447,8.345771,0.012026157,-0.15064283,-0.15064283
2463166804,0,-1.3324357,2.7406447,8.345771,0.040125936,-0.085891165,-0.085891165
2463166809,0,-1.1840017,2.8842905,8.161426,0.040125936,-0.085891165,-0.085891165
2463166819,0,-0.8943157,3.1500356,8.044115,0.040125936,-0.085891165,-0.085891165
2463166814,0,-0.8943157,3.1500356,8.044115,0.059673607,-0.039465442,-0.039465442
2463166823,0,-0.8943157,3.1500356,8.044115,0.058451876,-0.024804689,-0.024804689
2463166828,0,-0.67884684,3.3200166,8.130302,0.058451876,-0.024804689,-0.024804689
2463166833,0,-0.67884684,3.3200166,8.130302,0.048067175,-0.042519767,-0.042519767
2463166838,0,-0.5423832,3.3990219,8.463082,0.048067175,-0.042519767,-0.042519767
2463166843,0,-0.5423832,3.3990219,8.463082,0.04195853,-0.08222598,-0.08222598
2463166847,0,-0.57590055,3.3607163,8.891626,0.04195853,-0.08222598,-0.08222598
2463166852,0,-0.57590055,3.3607163,8.891626,0.049288906,-0.12559737,-0.12559737
2463166857,0,-0.6549059,3.3583221,9.260317,0.049288906,-0.12559737,-0.12559737
2463166862,0,-0.6549059,3.3583221,9.260317,0.07372349,-0.16774704,-0.16774704
2463166867,0,-0.5184422,3.5881555,9.403963,0.07372349,-0.16774704,-0.16774704
2463166871,0,-0.5184422,3.5881555,9.403963,0.1219818,-0.22822264,-0.22822264
2463166876,0,-0.45140746,3.566609,9.415933,0.1219818,-0.22822264,-0.22822264
2463166881,0,-0.45140746,3.566609,9.415933,0.18551174,-0.2862548,-0.2862548
2463166886,0,-0.6309649,3.2960756,9.363263,0.18551174,-0.2862548,-0.2862548
2463166891,0,-0.6309649,3.2960756,9.363263,0.23865697,-0.29969382,-0.29969382
2463166896,0,-0.9948679,2.893867,9.071183,0.23865697,-0.29969382,-0.29969382
2463166900,0,-0.9948679,2.893867,9.071183,0.25087425,-0.23677476,-0.23677476
2463166905,0,-1.1840017,2.7095213,8.791074,0.25087425,-0.23677476,-0.23677476
2463166910,0,-1.1840017,2.7095213,8.791074,0.17879222,-0.12620823,-0.12620823
2463166915,0,-1.0834496,2.8771083,8.939508,0.17879222,-0.12620823,-0.12620823
2463166920,0,-1.0834496,2.8771083,8.939508,0.028519504,-0.019306907,-0.019306907
2463166924,0,-0.72194064,3.1620061,9.42551,0.028519504,-0.019306907,-0.019306907
2463166929,0,-0.72194064,3.1620061,9.42551,-0.14618781,0.039336104,0.039336104
2463166934,0,-0.43225467,3.2457995,10.093463,-0.14618781,0.039336104,0.039336104
2463166939,0,-0.43225467,3.2457995,10.093463,-0.2848541,0.058883775,0.058883775
2463166944,0,-0.30776155,3.1979175,10.656077,-0.2848541,0.058883775,0.058883775
2463166948,0,-0.30776155,3.1979175,10.656077,-0.35327095,0.06377069,0.06377069
2463166953,0,-0.3652199,3.1572177,11.017586,-0.35327095,0.06377069,0.06377069
2463166958,0,-0.3652199,3.1572177,11.017586,-0.33066896,0.06987934,0.06987934
2463166963,0,-0.49210715,3.0949712,11.091803,-0.33066896,0.06987934,0.06987934
2463166968,0,-0.49210715,3.0949712,11.091803,-0.22682196,0.08515096,0.08515096
2463166972,0,-0.60462976,3.0949712,10.696776,-0.22682196,0.08515096,0.08515096
2463166977,0,-0.60462976,3.0949712,10.696776,-0.09670777,0.10469863,0.10469863
2463166982,0,-0.6884233,3.1644,9.887571,-0.09670777,0.10469863,0.10469863
2463166987,0,-0.6884233,3.1644,9.887571,-0.0044671902,0.12180284,0.12180284
2463166992,0,-0.5782947,3.377475,9.1741295,-0.0044671902,0.12180284,0.12180284
2463166997,0,-0.5782947,3.377475,9.1741295,0.030962966,0.11508333,0.11508333
2463167001,0,-0.3867668,3.6288552,8.652216,0.030962966,0.11508333,0.11508333
2463167006,0,-0.3867668,3.6288552,8.652216,0.03707161,0.070490204,0.070490204
2463167011,0,-0.17129791,3.6982844,8.305072,0.03707161,0.070490204,0.070490204
2463167016,0,-0.17129791,3.6982844,8.305072,0.02913037,0.00085162814,0.00085162814
2463167021,0,-0.013287395,3.7557425,8.360136,0.02913037,0.00085162814,0.00085162814
2463167025,0,-0.013287395,3.7557425,8.360136,0.018134806,-0.07733906,-0.07733906
2463167030,0,-0.0108933,3.719831,8.680945,0.018134806,-0.07733906,-0.07733906
2463167035,0,-0.0108933,3.719831,8.680945,0.015080482,-0.15919493,-0.15919493
2463167040,0,-0.11862774,3.592944,8.94669,0.015080482,-0.15919493,-0.15919493
2463167045,0,-0.11862774,3.592944,8.94669,0.021799993,-0.23494215,-0.23494215
2463167049,0,-0.26227367,3.4612682,9.102307,0.021799993,-0.23494215,-0.23494215
2463167054,0,-0.26227367,3.4612682,9.102307,0.030962966,-0.29969382,-0.29969382
2463167059,0,-0.45619568,3.329593,9.121459,0.030962966,-0.29969382,-0.29969382
2463167064,0,-0.45619568,3.329593,9.121459,0.03523902,-0.34611952,-0.34611952
2463167069,0,-0.6884233,3.1811588,9.178918,0.03523902,-0.34611952,-0.34611952
2463167074,0,-0.6884233,3.1811588,9.178918,0.032184694,-0.3748302,-0.3748302
2463167078,0,-0.92065084,3.015966,9.245952,0.032184694,-0.3748302,-0.3748302
2463167083,0,-0.92065084,3.015966,9.245952,0.020578265,-0.37910622,-0.37910622
2463167088,0,-1.1409079,2.9465373,9.301017,0.020578265,-0.37910622,-0.37910622
2463167093,0,-1.1409079,2.9465373,9.301017,0.0028631866,-0.35650423,-0.35650423
2463167098,0,-1.2127309,2.9848428,9.43748,0.0028631866,-0.35650423,-0.35650423
2463167102,0,-1.2127309,2.9848428,9.43748,-0.0062997844,-0.3192415,-0.3192415
2463167107,0,-1.021203,3.159612,9.5380335,-0.0062997844,-0.3192415,-0.3192415
2463167112,0,-1.021203,3.159612,9.5380335,0.0016414572,-0.29908296,-0.29908296
2463167117,0,-0.6381471,3.2936816,9.511697,0.0016414572,-0.29908296,-0.29908296
2463167122,0,-0.6381471,3.2936816,9.511697,0.021799993,-0.31496543,-0.31496543
2463167126,0,-0.3412789,3.4445097,9.447057,0.021799993,-0.31496543,-0.31496543
2463167131,0,-0.3412789,3.4445097,9.447057,0.038904205,-0.36139116,-0.36139116
2463167136,0,-0.19284481,3.54985,9.353687,0.038904205,-0.36139116,-0.36139116
2463167141,0,-0.19284481,3.54985,9.353687,0.038904205,-0.42247763,-0.42247763
2463167146,0,-0.13299233,3.5570323,9.267499,0.038904205,-0.42247763,-0.42247763
2463167150,0,-0.13299233,3.5570323,9.267499,0.011415293,-0.49089447,-0.49089447
2463167155,0,-0.12581003,3.4971797,9.344111,0.011415293,-0.49089447,-0.49089447
2463167160,0,-0.12581003,3.4971797,9.344111,-0.040508207,-0.5629765,-0.5629765
2463167165,0,-0.31015563,3.3607163,9.600279,-0.040508207,-0.5629765,-0.5629765
2463167170,0,-0.31015563,3.3607163,9.600279,-0.0997621,-0.6295607,-0.6295607
2463167175,0,-0.67884684,3.1500356,9.897147,-0.0997621,-0.6295607,-0.6295607
2463167179,0,-0.67884684,3.1500356,9.897147,-0.14374435,-0.66743433,-0.66743433
2463167184,0,-1.1073905,2.9154139,10.194016,-0.14374435,-0.66743433,-0.66743433
2463167189,0,-1.1073905,2.9154139,10.194016,-0.15718338,-0.66865605,-0.66865605
2463167194,0,-1.5048109,2.7310684,10.438214,-0.15718338,-0.66865605,-0.66865605
2463167203,0,-1.7298563,2.6161516,10.426243,-0.15718338,-0.66865605,-0.66865605
2463167199,0,-1.7298563,2.6161516,10.426243,-0.13152705,-0.6350585,-0.6350585
2463167208,0,-1.7298563,2.6161516,10.426243,-0.080214426,-0.57580465,-0.57580465
2463167213,0,-1.7944969,2.6185455,10.340056,-0.080214426,-0.57580465,-0.57580465
2463167218,0,-1.7944969,2.6185455,10.340056,-0.023403997,-0.5037226,-0.5037226
2463167223,0,-1.6628214,2.7286744,10.270627,-0.023403997,-0.5037226,-0.5037226
2463167227,0,-1.6628214,2.7286744,10.270627,0.023021724,-0.43836012,-0.43836012
2463167232,0,-1.3970765,2.9369607,10.122193,0.023021724,-0.43836012,-0.43836012
2463167237,0,-1.3970765,2.9369607,10.122193,0.04867804,-0.39559957,-0.39559957
2463167242,0,-1.0188088,3.1979175,9.966576,0.04867804,-0.39559957,-0.39559957
2463167247,0,-1.0188088,3.1979175,9.966576,0.055397555,-0.38949093,-0.38949093
2463167252,0,-0.6309649,3.4469037,9.894753,0.055397555,-0.38949093,-0.38949093
2463167256,0,-0.6309649,3.4469037,9.894753,0.05600842,-0.42675367,-0.42675367
2463167261,0,-0.47534847,3.5354855,9.798989,0.05600842,-0.42675367,-0.42675367
2463167266,0,-0.47534847,3.5354855,9.798989,0.051732365,-0.49944657,-0.49944657
2463167271,0,-0.6429354,3.40381,9.727166,0.051732365,-0.49944657,-0.49944657
2463167276,0,-0.6429354,3.40381,9.727166,0.042569395,-0.57336116,-0.57336116
2463167280,0,-1.1073905,3.1452472,9.851659,0.042569395,-0.57336116,-0.57336116
2463167285,0,-1.1073905,3.1452472,9.851659,0.036460746,-0.6130674,-0.6130674
2463167290,0,-1.6221218,2.824438,9.973758,0.036460746,-0.6130674,-0.6130674
2463167295,0,-1.6221218,2.824438,9.973758,0.042569395,-0.60634786,-0.60634786
2463167300,0,-2.0315125,2.601787,9.988123,0.042569395,-0.60634786,-0.60634786
2463167304,0,-2.0315125,2.601787,9.988123,0.06272792,-0.56175476,-0.56175476
2463167309,0,-2.2852871,2.4701116,9.918694,0.06272792,-0.56175476,-0.56175476
2463167314,0,-2.2852871,2.4701116,9.918694,0.09021684,-0.4902836,-0.4902836
2463167319,0,-2.354716,2.4437766,9.77026,0.09021684,-0.4902836,-0.4902836
2463167324,0,-2.354716,2.4437766,9.77026,0.115262285,-0.40842775,-0.40842775
2463167329,0,-2.2517698,2.529964,9.655343,0.115262285,-0.40842775,-0.40842775
2463167333,0,-2.2517698,2.529964,9.655343,0.13480996,-0.33573484,-0.33573484
2463167338,0,-1.9956012,2.6233337,9.660132,0.13480996,-0.33573484,-0.33573484
2463167343,0,-1.9956012,2.6233337,9.660132,0.15069245,-0.28320047,-0.28320047
2463167348,0,-1.6987329,2.7382505,9.703225,0.15069245,-0.28320047,-0.28320047
2463167353,0,-1.6987329,2.7382505,9.703225,0.16229887,-0.25571156,-0.25571156
2463167357,0,-1.4234115,2.8340147,9.705619,0.16229887,-0.25571156,-0.25571156
2463167362,0,-1.4234115,2.8340147,9.705619,0.16290973,-0.24838118,-0.24838118
2463167367,0,-1.1552725,2.9058375,9.566762,0.16290973,-0.24838118,-0.24838118
2463167372,0,-1.1552725,2.9058375,9.566762,0.14763811,-0.2618202,-0.2618202
2463167377,0,-1.0092325,2.9776607,9.341716,0.14763811,-0.2618202,-0.2618202
2463167381,0,-1.0092325,2.9776607,9.341716,0.116484016,-0.2874765,-0.2874765
2463167386,0,-1.0092325,2.9728723,9.085548,0.116484016,-0.2874765,-0.2874765
2463167391,0,-1.0092325,2.9728723,9.085548,0.07311262,-0.31130025,-0.31130025
2463167396,0,-1.047538,2.944143,9.164553,0.07311262,-0.31130025,-0.31130025
2463167401,0,-1.047538,2.944143,9.164553,0.037682477,-0.32168496,-0.32168496
2463167405,0,-1.0355675,2.774162,9.29144,0.037682477,-0.32168496,-0.32168496
2463167410,0,-1.0355675,2.774162,9.29144,0.03157383,-0.30458075,-0.30458075
2463167415,0,-0.8799511,2.8411968,9.743925,0.03157383,-0.30458075,-0.30458075
2463167420,0,-0.8799511,2.8411968,9.743925,0.040736802,-0.2966395,-0.2966395
2463167425,0,-0.67645276,2.9034433,10.083887,0.040736802,-0.2966395,-0.2966395
2463167430,0,-0.67645276,2.9034433,10.083887,0.07189089,-0.30274814,-0.30274814
2463167434,0,-0.47774255,2.91302,10.20838,0.07189089,-0.30274814,-0.30274814
2463167439,0,-0.47774255,2.91302,10.20838,0.104266725,-0.32168496,-0.32168496
2463167444,0,-0.31494385,3.0016015,10.222745,0.104266725,-0.32168496,-0.32168496
2463167449,0,-0.31494385,3.0016015,10.222745,0.13358822,-0.35283905,-0.35283905
2463167454,0,-0.17129791,3.185947,10.059946,0.13358822,-0.35283905,-0.35283905
2463167458,0,-0.17129791,3.185947,10.059946,0.14824899,-0.40476254,-0.40476254
2463167463,0,-0.1808743,3.3224108,9.748713,0.14824899,-0.40476254,-0.40476254
2463167468,0,-0.1808743,3.3224108,9.748713,0.14152947,-0.46523815,-0.46523815
2463167473,0,-0.3484612,3.3224108,9.380022,0.14152947,-0.46523815,-0.46523815
2463167478,0,-0.3484612,3.3224108,9.380022,0.113429695,-0.5189942,-0.5189942
2463167482,0,-0.7003938,3.25777,9.140612,0.113429695,-0.5189942,-0.5189942
2463167487,0,-0.7003938,3.25777,9.140612,0.07433435,-0.5452614,-0.5452614
2463167492,0,-1.047538,3.1691883,9.109489,0.07433435,-0.5452614,-0.5452614
2463167497,0,-1.047538,3.1691883,9.109489,0.03951507,-0.5397636,-0.5397636
2463167502,0,-1.2414601,3.1356711,9.272288,0.03951507,-0.5397636,-0.5397636
2463167507,0,-1.2414601,3.1356711,9.272288,0.024854317,-0.5189942,-0.5189942
2463167511,0,-1.2414601,3.1428533,9.573944,0.024854317,-0.5189942,-0.5189942
2463167521,0,-1.1504843,3.1644,9.957,0.024854317,-0.5189942,-0.5189942
2463167516,0,-1.1504843,3.1644,9.957,0.032184694,-0.49517053,-0.49517053
2463167526,0,-1.1504843,3.1644,9.957,0.05784101,-0.47867718,-0.47867718
2463167531,0,-1.021203,3.1883411,10.28978,0.05784101,-0.47867718,-0.47867718
2463167535,0,-1.021203,3.1883411,10.28978,0.09327116,-0.4731794,-0.4731794
2463167540,0,-0.9661387,3.252982,10.330479,0.09327116,-0.4731794,-0.4731794
2463167545,0,-0.9661387,3.252982,10.330479,0.12503612,-0.4731794,-0.4731794
2463167550,0,-1.0547204,3.3248048,10.052764,0.12503612,-0.4731794,-0.4731794
2463167555,0,-1.0547204,3.3248048,10.052764,0.1464164,-0.46523815,-0.46523815
2463167559,0,-1.1744254,3.382263,9.743925,0.1464164,-0.46523815,-0.46523815
2463167569,0,-1.191184,3.427751,9.490151,0.1464164,-0.46523815,-0.46523815
2463167564,0,-1.191184,3.427751,9.490151,0.16413146,-0.44446877,-0.44446877
2463167574,0,-1.191184,3.427751,9.490151,0.1824574,-0.42003417,-0.42003417
2463167579,0,-1.1863958,3.4804213,9.219617,0.1824574,-0.42003417,-0.42003417
2463167584,0,-1.1863958,3.4804213,9.219617,0.19162038,-0.39987564,-0.39987564
2463167588,0,-1.1385138,3.566609,8.953872,0.19162038,-0.39987564,-0.39987564
2463167593,0,-1.1385138,3.566609,8.953872,0.18184654,-0.38949093,-0.38949093
2463167598,0,-1.0810554,3.6384318,8.831773,0.18184654,-0.38949093,-0.38949093
2463167603,0,-1.0810554,3.6384318,8.831773,0.15802282,-0.39682132,-0.39682132
2463167608,0,-1.1241492,3.6384318,8.764739,0.15802282,-0.39682132,-0.39682132
2463167612,0,-1.1241492,3.6384318,8.764739,0.12503612,-0.41270378,-0.41270378
2463167617,0,-1.2965244,3.6073086,8.843744,0.12503612,-0.41270378,-0.41270378
2463167622,0,-1.2965244,3.6073086,8.843744,0.09143856,-0.4175907,-0.4175907
2463167627,0,-1.6149396,3.5019681,9.087942,0.09143856,-0.4175907,-0.4175907
2463167632,0,-1.6149396,3.5019681,9.087942,0.07433435,-0.39559957,-0.39559957
2463167636,0,-1.8328025,3.3176227,9.356081,0.07433435,-0.39559957,-0.39559957
2463167641,0,-1.8328025,3.3176227,9.356081,0.081664726,-0.34550866,-0.34550866
2463167646,0,-1.8998373,3.1715825,9.609855,0.081664726,-0.34550866,-0.34550866
2463167651,0,-1.8998373,3.1715825,9.609855,0.1115971,-0.2880874,-0.2880874
2463167656,0,-1.895049,3.0087838,9.731955,0.1115971,-0.2880874,-0.2880874
2463167660,0,-1.895049,3.0087838,9.731955,0.14824899,-0.22516832,-0.22516832
2463167665,0,-1.8615316,2.917808,9.506909,0.14824899,-0.22516832,-0.22516832
2463167670,0,-1.8615316,2.917808,9.506909,0.17146185,-0.16408186,-0.16408186
2463167675,0,-1.8663199,2.8986554,9.059213,0.17146185,-0.16408186,-0.16408186
2463167680,0,-1.8663199,2.8986554,9.059213,0.16474234,-0.10727143,-0.10727143
2463167685,0,-1.9046254,2.994419,8.546876,0.16474234,-0.10727143,-0.10727143
2463167689,0,-1.9046254,2.994419,8.546876,0.12870131,-0.051682737,-0.051682737
2463167694,0,-1.8830786,3.0806067,8.185367,0.12870131,-0.051682737,-0.051682737
2463167699,0,-1.8830786,3.0806067,8.185367,0.07922127,0.0014624929,0.0014624929
2463167704,0,-1.8280143,3.1308827,8.080027,0.07922127,0.0014624929,0.0014624929
2463167709,0,-1.8280143,3.1308827,8.080027,0.0303521,0.052164264,0.052164264
2463167713,0,-1.6963389,3.183553,8.261978,0.0303521,0.052164264,0.052164264
2463167718,0,-1.6963389,3.183553,8.261978,-0.005078055,0.09858998,0.09858998
2463167723,0,-1.4952345,3.1548238,8.637851,-0.005078055,0.09858998,0.09858998
2463167728,0,-1.4952345,3.1548238,8.637851,-0.020960538,0.1364636,0.1364636
2463167733,0,-1.2725834,3.1356711,9.049636,-0.020960538,0.1364636,0.1364636
2463167737,0,-1.2725834,3.1356711,9.049636,-0.023403997,0.17189375,0.17189375
2463167742,0,-1.0044442,3.2410114,9.368051,-0.023403997,0.17189375,0.17189375
2463167747,0,-1.0044442,3.2410114,9.368051,-0.02523659,0.19999352,0.19999352
2463167752,0,-0.7027879,3.4469037,9.564368,-0.02523659,0.19999352,0.19999352
2463167757,0,-0.7027879,3.4469037,9.564368,-0.03562129,0.2091565,0.2091565
2463167762,0,-0.415496,3.6551902,9.772654,-0.03562129,0.2091565,0.2091565
2463167766,0,-0.415496,3.6551902,9.772654,-0.052114636,0.193274,0.193274
2463167771,0,-0.2048153,3.7820776,10.014458,-0.052114636,0.193274,0.193274
2463167776,0,-0.2048153,3.7820776,10.014458,-0.059445016,0.16028732,0.16028732
2463167781,0,-0.05159296,3.865871,10.270627,-0.059445016,0.16028732,0.16028732
2463167786,0,-0.05159296,3.865871,10.270627,-0.050892908,0.11630505,0.11630505
2463167790,0,0.053747386,3.863477,10.428637,-0.050892908,0.11630505,0.11630505
2463167795,0,0.053747386,3.863477,10.428637,-0.025847454,0.065603286,0.065603286
2463167800,0,0.084870666,3.8419302,10.414273,-0.025847454,0.065603286,0.065603286
2463167805,0,0.084870666,3.8419302,10.414273,0.011415293,0.014290651,0.014290651
2463167810,0,-0.05159296,3.8203833,10.232321,0.011415293,0.014290651,0.014290651
2463167819,0,-0.24072677,3.8155951,10.05037,0.011415293,0.014290651,0.014290651
2463167814,0,-0.24072677,3.8155951,10.05037,0.05356496,-0.024193825,-0.024193825
2463167824,0,-0.24072677,3.8155951,10.05037,0.096936345,-0.043130632,-0.043130632
2463167829,0,-0.33170253,3.7772896,9.851659,0.096936345,-0.043130632,-0.043130632
2463167834,0,-0.33170253,3.7772896,9.851659,0.13603169,-0.054126196,-0.054126196
2463167839,0,-0.3412789,3.7868657,9.619432,0.13603169,-0.054126196,-0.054126196
2463167843,0,-0.3412789,3.7868657,9.619432,0.16229887,-0.06512176,-0.06512176
2463167848,0,-0.33170253,3.7964423,9.444663,0.16229887,-0.06512176,-0.06512176
2463167853,0,-0.33170253,3.7964423,9.444663,0.17512703,-0.08100425,-0.08100425
2463167858,0,-0.3340966,3.7796836,9.250741,0.17512703,-0.08100425,-0.08100425
2463167863,0,-0.3340966,3.7796836,9.250741,0.17512703,-0.10299538,-0.10299538
2463167867,0,-0.3771904,3.7605307,8.982602,0.17512703,-0.10299538,-0.10299538
2463167872,0,-0.3771904,3.7605307,8.982602,0.15985541,-0.12926257,-0.12926257
2463167877,0,-0.45858976,3.6743433,8.692916,0.15985541,-0.12926257,-0.12926257
2463167882,0,-0.45858976,3.6743433,8.692916,0.13358822,-0.15491888,-0.15491888
2463167887,0,-0.6022357,3.5426679,8.518146,0.13358822,-0.15491888,-0.15491888
2463167891,0,-0.6022357,3.5426679,8.518146,0.10487759,-0.17202309,-0.17202309
2463167896,0,-0.7674285,3.427751,8.501388,0.10487759,-0.17202309,-0.17202309
2463167901,0,-0.7674285,3.427751,8.501388,0.07983214,-0.17324482,-0.17324482
2463167906,0,-0.9278331,3.3463519,8.582787,0.07983214,-0.17324482,-0.17324482
2463167911,0,-0.9278331,3.3463519,8.582787,0.06272792,-0.1579732,-0.1579732
2463167915,0,-1.0379617,3.3176227,8.743192,0.06272792,-0.1579732,-0.1579732
2463167920,0,-1.0379617,3.3176227,8.743192,0.04989977,-0.13659294,-0.13659294
2463167925,0,-1.0547204,3.3343813,8.913173,0.04989977,-0.13659294,-0.13659294
2463167930,0,-1.0547204,3.3343813,8.913173,0.038904205,-0.11399094,-0.11399094
2463167935,0,-0.99007964,3.4109924,9.04006,0.038904205,-0.11399094,-0.11399094
2463167940,0,-0.99007964,3.4109924,9.04006,0.027297776,-0.093221545,-0.093221545
2463167944,0,-0.94938004,3.5139387,9.205253,0.027297776,-0.093221545,-0.093221545
2463167949,0,-0.94938004,3.5139387,9.205253,0.023021724,-0.077949926,-0.077949926
2463167954,0,-0.92065084,3.5642145,9.322564,0.023021724,-0.077949926,-0.077949926
2463167959,0,-0.92065084,3.5642145,9.322564,0.03279556,-0.07245214,-0.07245214
2463167964,0,-0.94938004,3.6288552,9.269893,0.03279556,-0.07245214,-0.07245214
2463167968,0,-0.94938004,3.6288552,9.269893,0.051732365,-0.07245214,-0.07245214
2463167973,0,-1.0068383,3.669555,9.085548,0.051732365,-0.07245214,-0.07245214
2463167978,0,-1.0068383,3.669555,9.085548,0.06639311,-0.07306301,-0.07306301
2463167983,0,-1.0786613,3.669555,8.89402,0.06639311,-0.07306301,-0.07306301
2463167988,0,-1.0786613,3.669555,8.89402,0.0700583,-0.07123041,-0.07123041
2463167992,0,-1.2127309,3.6551902,8.798256,0.0700583,-0.07123041,-0.07123041
2463167997,0,-1.2127309,3.6551902,8.798256,0.06700397,-0.060845707,-0.060845707
2463168002,0,-1.3396182,3.6168847,8.771921,0.06700397,-0.060845707,-0.060845707
2463168007,0,-1.3396182,3.6168847,8.771921,0.0615062,-0.034578525,-0.034578525
2463168012,0,-1.4234115,3.5594265,8.891626,0.0615062,-0.034578525,-0.034578525
2463168017,0,-1.4234115,3.5594265,8.891626,0.06028447,0.003295087,0.003295087
2463168021,0,-1.3970765,3.552244,9.150189,0.06028447,0.003295087,0.003295087
2463168026,0,-1.3970765,3.552244,9.150189,0.07494522,0.04361216,0.04361216
2463168031,0,-1.2941303,3.6456141,9.324958,0.07494522,0.04361216,0.04361216
2463168036,0,-1.2941303,3.6456141,9.324958,0.09937981,0.07537712,0.07537712
2463168041,0,-1.1313314,3.8275654,9.401569,0.09937981,0.07537712,0.07537712
2463168045,0,-1.1313314,3.8275654,9.401569,0.12259266,0.091259606,0.091259606
2463168050,0,-0.9134685,4.0478225,9.387204,0.12259266,0.091259606,0.091259606
2463168055,0,-0.9134685,4.0478225,9.387204,0.13786428,0.08759441,0.08759441
2463168060,0,-0.7722167,4.265685,9.205253,0.13786428,0.08759441,0.08759441
2463168065,0,-0.7722167,4.265685,9.205253,0.14152947,0.06865761,0.06865761
2463168069,0,-0.7961577,4.406937,8.877261,0.14152947,0.06865761,0.06865761
2463168074,0,-0.7961577,4.406937,8.877261,0.13786428,0.04239043,0.04239043
2463168079,0,-0.94698596,4.4284844,8.546876,0.13786428,0.04239043,0.04239043
2463168084,0,-0.94698596,4.4284844,8.546876,0.12625785,0.022842757,0.022842757
2463168089,0,-1.1504843,4.375814,8.40323,0.12625785,0.022842757,0.022842757
2463168093,0,-1.1504843,4.375814,8.40323,0.11281883,0.01795584,0.01795584
2463168098,0,-1.3875002,4.2585034,8.465476,0.11281883,0.01795584,0.01795584
2463168103,0,-1.3875002,4.2585034,8.465476,0.106099315,0.032616593,0.032616593
2463168108,0,-1.5646634,4.1483746,8.652216,0.106099315,0.032616593,0.032616593
2463168113,0,-1.5646634,4.1483746,8.652216,0.10915364,0.06499242,0.06499242
2463168118,0,-1.6580333,4.0717635,8.805438,0.10915364,0.06499242,0.06499242
2463168122,0,-1.6580333,4.0717635,8.805438,0.115262285,0.10286603,0.10286603
2463168127,0,-1.6652155,4.0789456,8.956267,0.115262285,0.10286603,0.10286603
2463168132,0,-1.6652155,4.0789456,8.956267,0.116484016,0.13951792,0.13951792
2463168137,0,-1.6245159,4.1004925,9.107095,0.116484016,0.13951792,0.13951792
2463168142,0,-1.6245159,4.1004925,9.107095,0.10915364,0.16945028,0.16945028
2463168146,0,-1.5670575,4.1483746,9.250741,0.10915364,0.16945028,0.16945028
2463168151,0,-1.5670575,4.1483746,9.250741,0.09754721,0.19083056,0.19083056
2463168156,0,-1.5239638,4.196256,9.375234,0.09754721,0.19083056,0.19083056
2463168161,0,-1.5239638,4.196256,9.375234,0.08716251,0.2091565,0.2091565
2463168166,0,-1.5407224,4.213015,9.43748,0.08716251,0.2091565,0.2091565
2463168170,0,-1.5407224,4.213015,9.43748,0.08410819,0.22381724,0.22381724
2463168175,0,-1.5838162,4.1890745,9.418328,0.08410819,0.22381724,0.22381724
2463168180,0,-1.5838162,4.1890745,9.418328,0.09021684,0.23969974,0.23969974
2463168185,0,-1.6987329,4.172315,9.43748,0.09021684,0.23969974,0.23969974
2463168190,0,-1.6987329,4.172315,9.43748,0.106099315,0.2629126,0.2629126
2463168195,0,-1.7921028,4.138798,9.492545,0.106099315,0.2629126,0.2629126
2463168204,0,-1.8016791,4.129222,9.540427,0.106099315,0.2629126,0.2629126
2463168199,0,-1.8016791,4.129222,9.540427,0.13542083,0.29712102,0.29712102
2463168209,0,-1.8016791,4.129222,9.540427,0.17146185,0.33316204,0.33316204
2463168214,0,-1.6939448,4.1651335,9.57155,0.17146185,0.33316204,0.33316204
2463168219,0,-1.6939448,4.1651335,9.57155,0.20811373,0.35576403,0.35576403
2463168223,0,-1.5598751,4.1938624,9.557185,0.20811373,0.35576403,0.35576403
2463168228,0,-1.5598751,4.1938624,9.557185,0.24659821,0.3679813,0.3679813
2463168233,0,-1.4521408,4.198651,9.368051,0.24659821,0.3679813,0.3679813
2463168238,0,-1.4521408,4.198651,9.368051,0.27897403,0.3753117,0.3753117
2463168243,0,-1.4042587,4.260897,9.006543,0.27897403,0.3753117,0.3753117
2463168247,0,-1.4042587,4.260897,9.006543,0.2899696,0.37286824,0.37286824
2463168252,0,-1.3994707,4.347085,8.697704,0.2899696,0.37286824,0.37286824
2463168257,0,-1.3994707,4.347085,8.697704,0.27958488,0.3582075,0.3582075
2463168262,0,-1.5479047,4.3327203,8.530117,0.27958488,0.3582075,0.3582075
2463168267,0,-1.5479047,4.3327203,8.530117,0.25820464,0.34354672,0.34354672
2463168272,0,-1.7202798,4.2178035,8.527723,0.25820464,0.34354672,0.34354672
2463168276,0,-1.7202798,4.2178035,8.527723,0.2362135,0.34293586,0.34293586
2463168281,0,-1.9165959,4.1028867,8.594758,0.2362135,0.34293586,0.34293586
2463168286,0,-1.9165959,4.1028867,8.594758,0.21422237,0.36004007,0.36004007
2463168291,0,-2.043483,4.0190935,8.594758,0.21422237,0.36004007,0.36004007
2463168296,0,-2.043483,4.0190935,8.594758,0.1861226,0.387529,0.387529
2463168300,0,-2.0698183,3.9783938,8.637851,0.1861226,0.387529,0.387529
2463168305,0,-2.0698183,3.9783938,8.637851,0.15252504,0.41746137,0.41746137
2463168310,0,-2.0482714,3.9472706,8.647428,0.15252504,0.41746137,0.41746137
2463168315,0,-2.0482714,3.9472706,8.647428,0.116484016,0.44433942,0.44433942
2463168320,0,-2.0985475,3.9017825,8.657004,0.116484016,0.44433942,0.44433942
2463168324,0,-2.0985475,3.9017825,8.657004,0.08594078,0.47488266,0.47488266
2463168329,0,-2.1679761,3.7892601,8.6641865,0.08594078,0.47488266,0.47488266
2463168334,0,-2.1679761,3.7892601,8.6641865,0.06272792,0.5164215,0.5164215
2463168339,0,-2.237405,3.6767373,8.649822,0.06272792,0.5164215,0.5164215
2463168344,0,-2.237405,3.6767373,8.649822,0.046845447,0.57078844,0.57078844
2463168348,0,-2.2206466,3.6911018,8.673763,0.046845447,0.57078844,0.57078844
2463168353,0,-2.2206466,3.6911018,8.673763,0.03829334,0.6318749,0.6318749
2463168358,0,-2.086577,3.813201,8.973025,0.03829334,0.6318749,0.6318749
2463168363,0,-2.086577,3.813201,8.973025,0.040125936,0.6807441,0.6807441
2463168368,0,-1.7897086,3.940088,9.389598,0.040125936,0.6807441,0.6807441
2463168373,0,-1.7897086,3.940088,9.389598,0.057230145,0.71067643,0.71067643
2463168377,0,-1.5455106,4.0550046,9.6433735,0.057230145,0.71067643,0.71067643
2463168382,0,-1.5455106,4.0550046,9.6433735,0.084719054,0.721672,0.721672
2463168387,0,-1.3898941,4.1220393,9.585914,0.084719054,0.721672,0.721672
2463168392,0,-1.3898941,4.1220393,9.585914,0.11281883,0.71983945,0.71983945
2463168397,0,-1.3875002,4.177104,9.277076,0.11281883,0.71983945,0.71983945
2463168406,0,-1.432988,4.251321,8.901202,0.11281883,0.71983945,0.71983945
2463168401,0,-1.432988,4.251321,8.901202,0.12870131,0.71800685,0.71800685
2463168411,0,-1.432988,4.251321,8.901202,0.12442526,0.7149525,0.7149525
2463168416,0,-1.4856582,4.282444,8.657004,0.12442526,0.7149525,0.7149525
2463168421,0,-1.4856582,4.282444,8.657004,0.110375375,0.7149525,0.7149525
2463168425,0,-1.5455106,4.2872324,8.520541,0.110375375,0.7149525,0.7149525
2463168430,0,-1.5455106,4.2872324,8.520541,0.09204943,0.7137308,0.7137308
2463168435,0,-1.5957867,4.2417445,8.554058,0.09204943,0.7137308,0.7137308
2463168440,0,-1.5957867,4.2417445,8.554058,0.07128003,0.7112873,0.7112873
2463168445,0,-1.6460627,4.1890745,8.688127,0.07128003,0.7112873,0.7112873
2463168450,0,-1.6460627,4.1890745,8.688127,0.047456313,0.7137308,0.7137308
2463168454,0,-1.6604275,4.1076746,8.956267,0.047456313,0.7137308,0.7137308
2463168459,0,-1.6604275,4.1076746,8.956267,0.025465183,0.7265589,0.7265589
2463168464,0,-1.653245,3.9616349,9.265105,0.025465183,0.7265589,0.7265589
2463168474,0,-1.6125454,3.8323538,9.550003,0.025465183,0.7265589,0.7265589
2463168469,0,-1.6125454,3.8323538,9.550003,0.018134806,0.7497718,0.7497718
2463168478,0,-1.6125454,3.8323538,9.550003,0.028519504,0.7876454,0.7876454
2463168483,0,-1.5670575,3.7078605,9.688861,0.028519504,0.7876454,0.7876454
2463168488,0,-1.5670575,3.7078605,9.688861,0.05356496,0.8395689,0.8395689
2463168493,0,-1.4545349,3.6120965,9.686467,0.05356496,0.8395689,0.8395689
2463168498,0,-1.4545349,3.6120965,9.686467,0.09143856,0.8994337,0.8994337
2463168502,0,-1.3156772,3.6360376,9.597885,0.09143856,0.8994337,0.8994337
2463168507,0,-1.3156772,3.6360376,9.597885,0.13542083,0.961131,0.961131
2463168512,0,-1.09542,3.762925,9.468604,0.13542083,0.961131,0.961131
2463168517,0,-1.09542,3.762925,9.468604,0.17940308,1.0081675,1.0081675
2463168522,0,-0.8847393,3.9424822,9.296229,0.17940308,1.0081675,1.0081675
2463168527,0,-0.8847393,3.9424822,9.296229,0.22216362,1.0277152,1.0277152
2463168531,0,-0.7243347,4.1627393,9.001754,0.22216362,1.0277152,1.0277152
2463168536,0,-0.7243347,4.1627393,9.001754,0.25392857,1.0203848,1.0203848
2463168541,0,-0.63575304,4.3303256,8.61391,0.25392857,1.0203848,1.0203848
2463168546,0,-0.63575304,4.3303256,8.61391,0.2600372,0.9953394,0.9953394
2463168551,0,-0.60702384,4.4093313,8.252401,0.2600372,0.9953394,0.9953394
2463168555,0,-0.60702384,4.4093313,8.252401,0.2380461,0.9654071,0.9654071
2463168560,0,-0.6668763,4.4141192,8.137485,0.2380461,0.9654071,0.9654071
2463168565,0,-0.6668763,4.4141192,8.137485,0.20078334,0.94097245,0.94097245
2463168570,0,-0.7817931,4.4093313,8.288313,0.20078334,0.94097245,0.94097245
2463168575,0,-0.7817931,4.4093313,8.288313,0.16290973,0.9318095,0.9318095
2463168579,0,-0.8679806,4.351873,8.54927,0.16290973,0.9318095,0.9318095
2463168589,0,-0.8296751,4.275262,8.798256,0.16290973,0.9318095,0.9318095
2463168584,0,-0.8296751,4.275262,8.798256,0.13786428,0.9379181,0.9379181
2463168594,0,-0.8296751,4.275262,8.798256,0.13114478,0.9538006,0.9538006
2463168599,0,-0.69321144,4.246533,9.016119,0.13114478,0.9538006,0.9538006
2463168603,0,-0.69321144,4.246533,9.016119,0.13664256,0.9690722,0.9690722
2463168608,0,-0.52083635,4.260897,9.109489,0.13664256,0.9690722,0.9690722
2463168613,0,-0.52083635,4.260897,9.109489,0.14947072,0.9782352,0.9782352
2463168618,0,-0.36043173,4.3590555,8.984996,0.14947072,0.9782352,0.9782352
2463168623,0,-0.36043173,4.3590555,8.984996,0.15557936,0.97395915,0.97395915
2463168628,0,-0.25509137,4.517066,8.838956,0.15557936,0.97395915,0.97395915
2463168632,0,-0.25509137,4.517066,8.838956,0.15619023,0.9538006,0.9538006
2463168637,0,-0.21917988,4.646347,8.700098,0.15619023,0.9538006,0.9538006
2463168642,0,-0.21917988,4.646347,8.700098,0.15557936,0.9189813,0.9189813
2463168647,0,-0.26466775,4.7253523,8.688127,0.15557936,0.9189813,0.9189813
2463168652,0,-0.26466775,4.7253523,8.688127,0.15680109,0.8676687,0.8676687
2463168656,0,-0.30057925,4.6726823,8.901202,0.15680109,0.8676687,0.8676687
2463168661,0,-0.30057925,4.6726823,8.901202,0.16901839,0.81452346,0.81452346
2463168666,0,-0.3795845,4.5050955,9.061607,0.16901839,0.81452346,0.81452346
2463168676,0,-0.50647175,4.3590555,9.066395,0.16901839,0.81452346,0.81452346
2463168671,0,-0.50647175,4.3590555,9.066395,0.18917692,0.7742064,0.7742064
2463168680,0,-0.50647175,4.3590555,9.066395,0.20261595,0.7552696,0.7552696
2463168685,0,-0.65011764,4.2561088,8.862897,0.20261595,0.7552696,0.7552696
2463168690,0,-0.65011764,4.2561088,8.862897,0.19650729,0.7619891,0.7619891
2463168695,0,-0.6979996,4.2872324,8.604334,0.19650729,0.7619891,0.7619891
2463168700,0,-0.6979996,4.2872324,8.604334,0.16290973,0.78153676,0.78153676
2463168705,0,-0.5974475,4.390178,8.446323,0.16290973,0.78153676,0.78153676
2463168709,0,-0.5974475,4.390178,8.446323,0.10915364,0.79680836,0.79680836
2463168714,0,-0.42028418,4.5098834,8.374501,0.10915364,0.79680836,0.79680836
2463168719,0,-0.42028418,4.5098834,8.374501,0.04623458,0.79803014,0.79803014
2463168724,0,-0.29818514,4.6176176,8.429565,0.04623458,0.79803014,0.79803014
2463168729,0,-0.29818514,4.6176176,8.429565,-0.011797566,0.78398025,0.78398025
2463168733,0,-0.22636218,4.6487412,8.546876,-0.011797566,0.78398025,0.78398025
2463168738,0,-0.22636218,4.6487412,8.546876,-0.042951666,0.76443255,0.76443255
2463168743,0,-0.2072094,4.610436,8.783891,-0.042951666,0.76443255,0.76443255
2463168748,0,-0.2072094,4.610436,8.783891,-0.037453886,0.7424414,0.7424414
2463168753,0,-0.15693332,4.567342,9.035272,-0.037453886,0.7424414,0.7424414
2463168757,0,-0.15693332,4.567342,9.035272,0.0016414572,0.71556336,0.71556336
2463168762,0,-0.14975102,4.4787602,9.1861,0.0016414572,0.71556336,0.71556336
2463168767,0,-0.14975102,4.4787602,9.1861,0.059673607,0.68685275,0.68685275
2463168772,0,-0.18566251,4.4715776,9.241164,0.059673607,0.68685275,0.68685275
2463168777,0,-0.18566251,4.4715776,9.241164,0.11770575,0.6624181,0.6624181
2463168782,0,-0.24312088,4.4476366,9.217223,0.11770575,0.6624181,0.6624181
2463168786,0,-0.24312088,4.4476366,9.217223,0.1653532,0.6471465,0.6471465
2463168791,0,-0.26706186,4.416514,9.138218,0.1653532,0.6471465,0.6471465
2463168796,0,-0.26706186,4.416514,9.138218,0.20567027,0.6410379,0.6410379
2463168801,0,-0.23833267,4.450031,8.855714,0.20567027,0.6410379,0.6410379
2463168806,0,-0.23833267,4.450031,8.855714,0.22705053,0.63676184,0.63676184
2463168810,0,-0.24312088,4.538613,8.518146,0.22705053,0.63676184,0.63676184
2463168815,0,-0.24312088,4.538613,8.518146,0.2154441,0.6306532,0.6306532
2463168820,0,-0.21678579,4.639165,8.223672,0.2154441,0.6306532,0.6306532
2463168825,0,-0.21678579,4.639165,8.223672,0.17329444,0.61782503,0.61782503
2463168830,0,-0.1952389,4.6942286,7.9986267,0.17329444,0.61782503,0.61782503
2463168834,0,-0.1952389,4.6942286,7.9986267,0.112207964,0.6007208,0.6007208
2463168839,0,-0.22636218,4.737323,7.9770803,0.112207964,0.6007208,0.6007208
2463168844,0,-0.22636218,4.737323,7.9770803,0.050510637,0.5781188,0.5781188
2463168849,0,-0.26706186,4.7421107,8.149455,0.050510637,0.5781188,0.5781188
2463168858,0,-0.24312088,4.7205644,8.254796,0.050510637,0.5781188,0.5781188
2463168854,0,-0.24312088,4.7205644,8.254796,0.012026157,0.55673856,0.55673856
2463168863,0,-0.24312088,4.7205644,8.254796,-0.0014128664,0.5353583,0.5353583
2463168868,0,-0.13538644,4.7492933,8.261978,-0.0014128664,0.5353583,0.5353583
2463168873,0,-0.13538644,4.7492933,8.261978,-0.0056889197,0.50848025,0.50848025
2463168878,0,0.036988676,4.8977275,8.166214,-0.0056889197,0.50848025,0.50848025
2463168883,0,0.036988676,4.8977275,8.166214,-0.024625726,0.46449795,0.46449795
2463168887,0,0.13035855,5.0820727,7.969898,-0.024625726,0.46449795,0.46449795
2463168892,0,0.13035855,5.0820727,7.969898,-0.07654923,0.4064658,0.4064658
2463168897,0,0.14472312,5.232901,7.850193,-0.07654923,0.4064658,0.4064658
2463168902,0,0.14472312,5.232901,7.850193,-0.16207029,0.34354672,0.34354672
2463168907,0,0.10402343,5.232901,7.9339867,-0.16207029,0.34354672,0.34354672
2463168911,0,0.10402343,5.232901,7.9339867,-0.25308913,0.28612545,0.28612545
2463168916,0,0.08726475,5.204172,8.072844,-0.25308913,0.28612545,0.28612545
2463168921,0,0.08726475,5.204172,8.072844,-0.33066896,0.23114762,0.23114762
2463168926,0,0.14472312,5.187413,8.242825,-0.33066896,0.23114762,0.23114762
2463168931,0,0.14472312,5.187413,8.242825,-0.38747936,0.16945028,0.16945028
2463168935,0,0.20696968,5.1754427,8.484629,-0.38747936,0.16945028,0.16945028
2463168940,0,0.20696968,5.1754427,8.484629,-0.4100814,0.10286603,0.10286603
2463168945,0,0.22372839,5.170655,8.740798,-0.4100814,0.10286603,0.10286603
2463168950,0,0.22372839,5.170655,8.740798,-0.3954206,0.033838324,0.033838324
2463168955,0,0.19260511,5.170655,8.958661,-0.3954206,0.033838324,0.033838324
2463168960,0,0.19260511,5.170655,8.958661,-0.35754701,-0.033967663,-0.033967663
2463168964,0,0.09444708,5.1323495,8.984996,-0.35754701,-0.033967663,-0.033967663
2463168969,0,0.09444708,5.1323495,8.984996,-0.31661907,-0.10299538,-0.10299538
2463168974,0,-0.15214512,5.06292,8.860503,-0.31661907,-0.10299538,-0.10299538
2463168979,0,-0.15214512,5.06292,8.860503,-0.2811889,-0.1616384,-0.1616384
2463168984,0,-0.54956555,4.91688,8.70728,-0.2811889,-0.1616384,-0.1616384
2463168988,0,-0.54956555,4.91688,8.70728,-0.2488131,-0.19279249,-0.19279249
2463168993,0,-0.9948679,4.687047,8.680945,-0.2488131,-0.19279249,-0.19279249
2463168998,0,-0.9948679,4.687047,8.680945,-0.21032861,-0.1787426,-0.1787426
2463169003,0,-1.3444062,4.445243,8.798256,-0.21032861,-0.1787426,-0.1787426
2463169008,0,-1.3444062,4.445243,8.798256,-0.15840511,-0.12315391,-0.12315391
2463169012,0,-1.4736876,4.2776556,8.973025,-0.15840511,-0.12315391,-0.12315391
2463169017,0,-1.4736876,4.2776556,8.973025,-0.09548604,-0.046184953,-0.046184953
2463169022,0,-1.3635591,4.2345624,9.298623,-0.09548604,-0.046184953,-0.046184953
2463169027,0,-1.3635591,4.2345624,9.298623,-0.02645832,0.028951406,0.028951406
2463169032,0,-1.1265433,4.2393503,9.619432,-0.02645832,0.028951406,0.028951406
2463169036,0,-1.1265433,4.2393503,9.619432,0.052954093,0.090037875,0.090037875
2463169041,0,-0.83446324,4.3351145,9.684073,0.052954093,0.090037875,0.090037875
2463169046,0,-0.83446324,4.3351145,9.684073,0.1305339,0.12546803,0.12546803
2463169051,0,-0.61899436,4.514672,9.461421,0.1305339,0.12546803,0.12546803
2463169056,0,-0.61899436,4.514672,9.461421,0.18673345,0.12913321,0.12913321
2463169061,0,-0.51604813,4.756476,9.05203,0.18673345,0.12913321,0.12913321
2463169065,0,-0.51604813,4.756476,9.05203,0.21177891,0.10469863,0.10469863
2463169070,0,-0.5328068,4.9623685,8.592364,0.21177891,0.10469863,0.10469863
2463169075,0,-0.5328068,4.9623685,8.592364,0.20505941,0.060105506,0.060105506
2463169080,0,-0.6716646,5.0677085,8.276342,0.20505941,0.060105506,0.060105506
2463169089,0,-0.90628624,5.0605264,8.388865,0.20505941,0.060105506,0.060105506
2463169085,0,-0.90628624,5.0605264,8.388865,0.17757049,0.0026842223,0.0026842223
2463169094,0,-0.90628624,5.0605264,8.388865,0.15985541,-0.04679582,-0.04679582
2463169099,0,-1.1049964,4.8713923,8.822197,0.15985541,-0.04679582,-0.04679582
2463169104,0,-1.1049964,4.8713923,8.822197,0.17268357,-0.07184128,-0.07184128
2463169109,0,-1.1792135,4.615224,9.128642,0.17268357,-0.07184128,-0.07184128
2463169113,0,-1.1792135,4.615224,9.128642,0.20750286,-0.07000868,-0.07000868
2463169118,0,-1.1768193,4.4787602,9.169341,0.20750286,-0.07000868,-0.07000868
2463169123,0,-1.1768193,4.4787602,9.169341,0.24659821,-0.04801755,-0.04801755
2463169128,0,-1.0930259,4.536218,8.879655,0.24659821,-0.04801755,-0.04801755
2463169133,0,-1.0930259,4.536218,8.879655,0.26309156,-0.021750366,-0.021750366
2463169138,0,-0.98768556,4.708594,8.527723,0.26309156,-0.021750366,-0.021750366
2463169142,0,-0.98768556,4.708594,8.527723,0.24232215,-0.008311342,-0.008311342
2463169147,0,-0.925439,4.9288507,8.161426,0.24232215,-0.008311342,-0.008311342
2463169157,0,-0.95895636,5.086861,7.883711,0.24232215,-0.008311342,-0.008311342
2463169152,0,-0.95895636,5.086861,7.883711,0.18795519,-0.015030853,-0.015030853
2463169162,0,-0.95895636,5.086861,7.883711,0.118316606,-0.035800256,-0.035800256
2463169166,0,-1.0930259,5.1275606,7.6658473,0.118316606,-0.035800256,-0.035800256
2463169171,0,-1.0930259,5.1275606,7.6658473,0.050510637,-0.056569654,-0.056569654
2463169176,0,-1.3061007,5.06292,7.6921825,0.050510637,-0.056569654,-0.056569654
2463169181,0,-1.3061007,5.06292,7.6921825,0.0046957806,-0.06817609,-0.06817609
2463169186,0,-1.3755296,4.9240623,8.0082035,0.0046957806,-0.06817609,-0.06817609
2463169190,0,-1.3755296,4.9240623,8.0082035,0.0016414572,-0.062067438,-0.062067438
2463169195,0,-1.3707414,4.8498454,8.510964,0.0016414572,-0.062067438,-0.062067438
2463169200,0,-1.3707414,4.8498454,8.510964,0.04195853,-0.04557409,-0.04557409
2463169205,0,-1.2318838,4.885757,9.233982,0.04195853,-0.04557409,-0.04557409
2463169210,0,-1.2318838,4.885757,9.233982,0.12686872,-0.027859014,-0.027859014
2463169215,0,-0.93501544,4.8737864,9.992911,0.12686872,-0.027859014,-0.027859014
2463169219,0,-0.93501544,4.8737864,9.992911,0.24904168,-0.02236123,-0.02236123
2463169224,0,-0.683635,4.8881507,10.126981,0.24904168,-0.02236123,-0.02236123
2463169229,0,-0.683635,4.8881507,10.126981,0.36571681,-0.041298036,-0.041298036
2463169234,0,-0.5447773,4.833087,9.715196,0.36571681,-0.041298036,-0.041298036
2463169239,0,-0.5447773,4.833087,9.715196,0.4475727,-0.073673874,-0.073673874
2463169243,0,-0.73391116,4.8953333,9.138218,0.4475727,-0.073673874,-0.073673874
2463169248,0,-0.73391116,4.8953333,9.138218,0.5013288,-0.093221545,-0.093221545
2463169253,0,-1.0834496,5.000674,8.489417,0.5013288,-0.093221545,-0.093221545
2463169258,0,-1.0834496,5.000674,8.489417,0.54164594,-0.08833463,-0.08833463
2463169263,0,-1.4305938,5.139531,7.8070993,0.54164594,-0.08833463,-0.08833463
2463169267,0,-1.4305938,5.139531,7.8070993,0.5660805,-0.0748956,-0.0748956
2463169272,0,-1.6843684,5.204172,7.316309,0.5660805,-0.0748956,-0.0748956
2463169277,0,-1.6843684,5.204172,7.316309,0.5923477,-0.060845707,-0.060845707
2463169282,0,-1.8256202,5.247266,7.0409875,0.5923477,-0.060845707,-0.060845707
2463169287,0,-1.8256202,5.247266,7.0409875,0.6167823,-0.05107187,-0.05107187
2463169291,0,-1.8830786,5.3023305,7.103234,0.6167823,-0.05107187,-0.05107187
2463169296,0,-1.8830786,5.3023305,7.103234,0.63449734,-0.047406685,-0.047406685
2463169301,0,-1.7849206,5.3262715,7.2133627,0.63449734,-0.047406685,-0.047406685
2463169306,0,-1.7849206,5.3262715,7.2133627,0.6302213,-0.04801755,-0.04801755
2463169311,0,-1.6364864,5.350212,7.337856,0.6302213,-0.04801755,-0.04801755
2463169316,0,-1.6364864,5.350212,7.337856,0.59173685,-0.054126196,-0.054126196
2463169320,0,-1.5479047,5.3693647,7.4072847,0.59173685,-0.054126196,-0.054126196
2463169325,0,-1.5479047,5.3693647,7.4072847,0.52576345,-0.059013113,-0.059013113
2463169330,0,-1.5862103,5.3789415,7.443196,0.52576345,-0.059013113,-0.059013113
2463169335,0,-1.5862103,5.3789415,7.443196,0.4530705,-0.061456572,-0.061456572
2463169340,0,-1.6604275,5.3286653,7.6227536,0.4530705,-0.061456572,-0.061456572
2463169344,0,-1.6604275,5.3286653,7.6227536,0.40175784,-0.05595879,-0.05595879
2463169349,0,-1.7370385,5.24966,7.7879467,0.40175784,-0.05595879,-0.05595879
2463169354,0,-1.7370385,5.24966,7.7879467,0.3852645,-0.04557409,-0.04557409
2463169359,0,-1.8160437,5.201778,7.8956814,0.3852645,-0.04557409,-0.04557409
2463169364,0,-1.8160437,5.201778,7.8956814,0.40297958,-0.029691607,-0.029691607
2463169368,0,-1.8519553,5.194596,7.7975225,0.40297958,-0.029691607,-0.029691607
2463169373,0,-1.8519553,5.194596,7.7975225,0.4390206,-0.01564172,-0.01564172
2463169378,0,-1.8567435,5.204172,7.5700836,0.4390206,-0.01564172,-0.01564172
2463169383,0,-1.8567435,5.204172,7.5700836,0.47445074,-0.008311342,-0.008311342
2463169388,0,-1.871108,5.232901,7.5054426,0.47445074,-0.008311342,-0.008311342
2463169393,0,-1.871108,5.232901,7.5054426,0.5111027,-0.0052570193,-0.0052570193
2463169397,0,-1.823226,5.2448716,7.8549814,0.5111027,-0.0052570193,-0.0052570193
2463169407,0,-1.6197276,5.2352953,7.9675035,0.5111027,-0.0052570193,-0.0052570193
2463169402,0,-1.6197276,5.2352953,7.9675035,0.5782978,0.00024076342,0.00024076342
2463169412,0,-1.6197276,5.2352953,7.9675035,0.6613754,-0.010754801,-0.010754801
2463169417,0,-1.4545349,5.299936,7.6682415,0.6613754,-0.010754801,-0.010754801
2463169421,0,-1.4545349,5.299936,7.6682415,0.71635324,-0.047406685,-0.047406685
2463169426,0,-1.6436687,5.1826253,7.275609,0.71635324,-0.047406685,-0.047406685
2463169431,0,-1.6436687,5.1826253,7.275609,0.71574235,-0.08772376,-0.08772376
2463169436,0,-1.5383283,5.0389795,6.325152,0.71574235,-0.08772376,-0.08772376
2463169441,0,-1.5383283,5.0389795,6.325152,0.694973,-0.11399094,-0.11399094
2463169445,0,-1.5024168,5.5010405,6.274876,0.694973,-0.11399094,-0.11399094
2463169450,0,-1.5024168,5.5010405,6.274876,0.6754253,-0.121932186,-0.121932186
2463169455,0,-1.6460627,5.8122735,6.4520392,0.6754253,-0.121932186,-0.121932186
2463169460,0,-1.6460627,5.8122735,6.4520392,0.63510823,-0.12254305,-0.12254305
2463169465,0,-1.7274622,5.7476325,6.1647477,0.63510823,-0.12254305,-0.12254305
2463169470,0,-1.7274622,5.7476325,6.1647477,0.57463264,-0.12315391,-0.12315391
2463169474,0,-1.5287519,5.625533,5.764933,0.57463264,-0.12315391,-0.12315391
2463169479,0,-1.5287519,5.625533,5.764933,0.5001071,-0.12742996,-0.12742996
2463169484,0,-1.4210175,5.484282,5.575799,0.5001071,-0.12742996,-0.12742996
2463169489,0,-1.4210175,5.484282,5.575799,0.42497072,-0.13048428,-0.13048428
2463169494,0,-1.2103368,5.572863,5.3387837,0.42497072,-0.13048428,-0.13048428
2463169498,0,-1.2103368,5.572863,5.3387837,0.35166693,-0.1457559,-0.1457559
2463169503,0,-0.94698596,5.795514,5.06825,0.35166693,-0.1457559,-0.1457559
2463169508,0,-0.94698596,5.795514,5.06825,0.26309156,-0.1872947,-0.1872947
2463169513,0,-0.8248869,5.960707,4.8575697,0.26309156,-0.1872947,-0.1872947
2463169518,0,-0.8248869,5.960707,4.8575697,0.15741195,-0.24227254,-0.24227254
2463169522,0,-0.76264036,6.262364,4.8096876,0.15741195,-0.24227254,-0.24227254
2463169527,0,-0.76264036,6.262364,4.8096876,0.0511215,-0.2966395,-0.2966395
2463169532,0,-0.7985518,6.4443154,5.1448617,0.0511215,-0.2966395,-0.2966395
2463169537,0,-0.7985518,6.4443154,5.1448617,-0.050282042,-0.3503956,-0.3503956
2463169542,0,-0.8871335,6.3413687,5.4177885,-0.050282042,-0.3503956,-0.3503956
2463169546,0,-0.8871335,6.3413687,5.4177885,-0.14863127,-0.40476254,-0.40476254
2463169551,0,-1.1768193,6.027742,5.5829816,-0.14863127,-0.40476254,-0.40476254
2463169561,0,-1.3228594,5.733268,5.326813,-0.14863127,-0.40476254,-0.40476254
2463169556,0,-1.3228594,5.733268,5.326813,-0.24942395,-0.45302087,-0.45302087
2463169566,0,-1.3228594,5.733268,5.326813,-0.3593796,-0.47928804,-0.47928804
2463169571,0,-1.2247014,5.7212973,5.4920053,-0.3593796,-0.47928804,-0.47928804
2463169575,0,-1.2247014,5.7212973,5.4920053,-0.4650592,-0.4988357,-0.4988357
2463169580,0,-1.3420123,5.5297694,5.671563,-0.4650592,-0.4988357,-0.4988357
2463169585,0,-1.3420123,5.5297694,5.671563,-0.5591323,-0.5073878,-0.5073878
2463169590,0,-1.2989184,5.54174,5.7338095,-0.5591323,-0.5073878,-0.5073878
2463169595,0,-1.2989184,5.54174,5.7338095,-0.659925,-0.5281572,-0.5281572
2463169599,0,-1.2869478,5.663839,5.98519,-0.659925,-0.5281572,-0.5281572
2463169604,0,-1.2869478,5.663839,5.98519,-0.7393374,-0.5477049,-0.5477049
2463169609,0,-1.2821598,5.8649435,6.2940283,-0.7393374,-0.5477049,-0.5477049
2463169614,0,-1.2821598,5.8649435,6.2940283,-0.79736954,-0.57030684,-0.57030684
2463169619,0,-1.1744254,6.0325303,6.425704,-0.79736954,-0.57030684,-0.57030684
2463169623,0,-1.1744254,6.0325303,6.425704,-0.8523474,-0.60756963,-0.60756963
2463169628,0,-0.8679806,6.137871,6.133624,-0.8523474,-0.60756963,-0.60756963
2463169633,0,-0.8679806,6.137871,6.133624,-0.92687285,-0.6753756,-0.6753756
2463169638,0,-0.6142062,6.1881466,5.870273,-0.92687285,-0.6753756,-0.6753756
2463169643,0,-0.6142062,6.1881466,5.870273,-1.0417155,-0.7792226,-0.7792226
2463169648,0,-0.6381471,6.0708356,5.9780073,-1.0417155,-0.7792226,-0.7792226
2463169652,0,-0.6381471,6.0708356,5.9780073,-1.1767166,-0.9026173,-0.9026173
2463169657,0,-1.0403558,5.761997,6.71539,-1.1767166,-0.9026173,-0.9026173
2463169662,0,-1.0403558,5.761997,6.71539,-1.2909483,-1.0027992,-1.0027992
2463169667,0,-1.5909985,5.139531,7.9172277,-1.2909483,-1.0027992,-1.0027992
2463169672,0,-1.5909985,5.139531,7.9172277,-1.3404284,-1.0516683,-1.0516683
2463169676,0,-2.0841827,4.440455,9.274682,-1.3404284,-1.0516683,-1.0516683
2463169681,0,-2.0841827,4.440455,9.274682,-1.2946135,-1.026012,-1.026012
2463169686,0,-2.3020458,3.906571,10.141345,-1.2946135,-1.026012,-1.026012
2463169691,0,-2.3020458,3.906571,10.141345,-1.1693863,-0.9380474,-0.9380474
2463169696,0,-2.2158582,3.6575847,10.284991,-1.1693863,-0.9380474,-0.9380474
2463169700,0,-2.2158582,3.6575847,10.284991,-1.0185026,-0.8293135,-0.8293135
2463169705,0,-1.7849206,3.743772,9.834901,-1.0185026,-0.8293135,-0.8293135
2463169710,0,-1.7849206,3.743772,9.834901,-0.8987731,-0.7444033,-0.7444033
2463169715,0,-1.2199132,4.157951,9.162159,-0.8987731,-0.7444033,-0.7444033
2463169724,0,-0.6285708,4.6894407,8.305072,-0.8987731,-0.7444033,-0.7444033
2463169720,0,-0.6285708,4.6894407,8.305072,-0.8401301,-0.7120275,-0.7120275
2463169729,0,-0.6285708,4.6894407,8.305072,-0.8560126,-0.75112283,-0.75112283
2463169734,0,-0.44183108,5.110802,7.562901,-0.8560126,-0.75112283,-0.75112283
2463169739,0,-0.44183108,5.110802,7.562901,-0.95314,-0.84580684,-0.84580684
2463169744,0,-0.80333996,5.134743,7.2780037,-0.95314,-0.84580684,-0.84580684
2463169749,0,-0.80333996,5.134743,7.2780037,-1.0991368,-0.94415605,-0.94415605
2463169753,0,-1.6388805,4.809146,7.534172,-1.0991368,-0.94415605,-0.94415605
2463169758,0,-1.6388805,4.809146,7.534172,-1.2316945,-0.98447317,-0.98447317
2463169763,0,-2.6132789,4.28005,8.072844,-1.2316945,-0.98447317,-0.98447317
2463169768,0,-2.6132789,4.28005,8.072844,-1.3178264,-0.935604,-0.935604
2463169773,0,-3.448819,3.6719491,8.688127,-1.3178264,-0.935604,-0.935604
2463169777,0,-3.448819,3.6719491,8.688127,-1.3392066,-0.78410953,-0.78410953
2463169782,0,-3.7480814,3.0997596,9.210041,-1.3392066,-0.78410953,-0.78410953
2463169787,0,-3.7480814,3.0997596,9.210041,-1.2958353,-0.5611439,-0.5611439
2463169792,0,-3.3602376,2.5443285,10.079099,-1.2958353,-0.5611439,-0.5611439
2463169797,0,-3.3602376,2.5443285,10.079099,-1.2084816,-0.3436761,-0.3436761
2463169801,0,-2.6324315,2.412653,11.788485,-1.2084816,-0.3436761,-0.3436761
2463169806,0,-2.6324315,2.412653,11.788485,-1.0539328,-0.17446655,-0.17446655
2463169811,0,-1.7777381,2.5850284,11.788485,-1.0539328,-0.17446655,-0.17446655
2463169816,0,-1.7777381,2.5850284,11.788485,-0.8395192,-0.05718052,-0.05718052
2463169821,0,-1.3037066,2.8603497,11.848338,-0.8395192,-0.05718052,-0.05718052
2463169826,0,-1.3037066,2.8603497,11.848338,-0.6153318,0.00024076342,0.00024076342
2463169830,0,-0.7817931,3.2050998,11.331212,-0.6153318,0.00024076342,0.00024076342
2463169835,0,-0.7817931,3.2050998,11.331212,-0.41619003,0.00024076342,0.00024076342
2463169840,0,-0.46337795,3.5905497,10.59383,-0.41619003,0.00024076342,0.00024076342
2463169845,0,-0.46337795,3.5905497,10.59383,-0.25125653,-0.051682737,-0.051682737
2463169850,0,-0.30297333,3.8778415,9.715196,-0.25125653,-0.051682737,-0.051682737
2463169854,0,-0.30297333,3.8778415,9.715196,-0.14740954,-0.13353862,-0.13353862
2463169859,0,-0.42507237,4.0454283,9.09273,-0.14740954,-0.13353862,-0.13353862
2463169864,0,-0.42507237,4.0454283,9.09273,-0.10403815,-0.20684238,-0.20684238
2463169869,0,-0.6285708,4.007123,8.994572,-0.10403815,-0.20684238,-0.20684238
2463169878,0,-0.74827564,3.9520586,9.176524,-0.10403815,-0.20684238,-0.20684238
2463169874,0,-0.74827564,3.9520586,9.176524,-0.0997621,-0.25937673,-0.25937673
2463169888,0,-0.8943157,3.7868657,9.308199,-0.0997621,-0.25937673,-0.25937673
2463169883,0,-0.8943157,3.7868657,9.308199,-0.11014679,-0.29114172,-0.29114172
2463169893,0,-0.8943157,3.7868657,9.308199,-0.1290836,-0.30030468,-0.30030468
2463169898,0,-0.46577206,3.377475,8.831773,-0.1290836,-0.30030468,-0.30030468
2463169903,0,-0.46577206,3.377475,8.831773,-0.17978537,-0.3210741,-0.3210741
2463169907,0,-0.37479633,3.3176227,8.709674,-0.17978537,-0.3210741,-0.3210741
2463169912,0,-0.37479633,3.3176227,8.709674,-0.24636963,-0.35589337,-0.35589337
2463169917,0,-0.7817931,3.693496,8.75995,-0.24636963,-0.35589337,-0.35589337
2463169922,0,-0.7817931,3.693496,8.75995,-0.3245603,-0.35833684,-0.35833684
2463169927,0,-0.8416456,3.964029,8.635457,-0.3245603,-0.35833684,-0.35833684
2463169931,0,-0.8416456,3.964029,8.635457,-0.4131357,-0.35406077,-0.35406077
2463169936,0,-0.513654,4.0095167,8.915567,-0.4131357,-0.35406077,-0.35406077
2463169941,0,-0.513654,4.0095167,8.915567,-0.4650592,-0.37544104,-0.37544104
2463169946,0,-0.15453923,3.9281175,9.260317,-0.4650592,-0.37544104,-0.37544104
2463169951,0,-0.15453923,3.9281175,9.260317,-0.4668918,-0.4243102,-0.4243102
2463169955,0,-0.015681505,3.9209354,9.459027,-0.4668918,-0.4243102,-0.4243102
2463169960,0,-0.015681505,3.9209354,9.459027,-0.42596385,-0.48784015,-0.48784015
2463169965,0,-0.07313987,3.9257236,9.482968,-0.42596385,-0.48784015,-0.48784015
2463169975,0,-0.12820414,3.8730533,9.554791,-0.42596385,-0.48784015,-0.48784015
2463169970,0,-0.12820414,3.8730533,9.554791,-0.35204923,-0.5452614,-0.5452614
2463169979,0,-0.12820414,3.8730533,9.554791,-0.25614345,-0.59474146,-0.59474146
2463169984,0,-0.16172151,3.8299596,9.550003,-0.25614345,-0.59474146,-0.59474146
2463169989,0,-0.16172151,3.8299596,9.550003,-0.16329202,-0.64116716,-0.64116716
2463169994,0,-0.26706186,3.743772,9.406357,-0.16329202,-0.64116716,-0.64116716
2463169999,0,-0.26706186,3.743772,9.406357,-0.106481604,-0.67109954,-0.67109954
2463170004,0,-0.45858976,3.600126,9.071183,-0.106481604,-0.67109954,-0.67109954
2463170008,0,-0.45858976,3.600126,9.071183,-0.10709247,-0.6796516,-0.6796516
2463170013,0,-0.6549059,3.4804213,8.795862,-0.10709247,-0.6796516,-0.6796516
2463170018,0,-0.6549059,3.4804213,8.795862,-0.16268116,-0.6649909,-0.6649909
2463170023,0,-0.92065084,3.3008637,8.733615,-0.16268116,-0.6649909,-0.6649909
2463170028,0,-0.92065084,3.3008637,8.733615,-0.24942395,-0.6252847,-0.6252847
2463170032,0,-1.1624548,3.0806067,8.956267,-0.24942395,-0.6252847,-0.6252847
2463170042,0,-1.3659533,2.8483791,9.214829,-0.24942395,-0.6252847,-0.6252847
2463170037,0,-1.3659533,2.8483791,9.214829,-0.32883635,-0.56175476,-0.56175476
2463170047,0,-1.3659533,2.8483791,9.214829,-0.37892726,-0.47623372,-0.47623372
2463170052,0,-1.409047,2.7190979,9.47818,-0.37892726,-0.47623372,-0.47623372
2463170056,0,-1.409047,2.7190979,9.47818,-0.38809025,-0.38704747,-0.38704747
2463170061,0,-1.361165,2.67361,9.542821,-0.38809025,-0.38704747,-0.38704747
2463170066,0,-1.361165,2.67361,9.542821,-0.36182305,-0.30580246,-0.30580246
2463170071,0,-1.2055486,2.7071273,9.214829,-0.36182305,-0.30580246,-0.30580246
2463170076,0,-1.2055486,2.7071273,9.214829,-0.33250156,-0.24105081,-0.24105081
2463170081,0,-0.8871335,2.9369607,8.867685,-0.33250156,-0.24105081,-0.24105081
2463170085,0,-0.8871335,2.9369607,8.867685,-0.32211685,-0.20867497,-0.20867497
2463170090,0,-0.57590055,3.2050998,8.534905,-0.32211685,-0.20867497,-0.20867497
2463170095,0,-0.57590055,3.2050998,8.534905,-0.33433414,-0.21722709,-0.21722709
2463170100,0,-0.3412789,3.279317,8.396047,-0.33433414,-0.21722709,-0.21722709
2463170105,0,-0.3412789,3.279317,8.396047,-0.38075987,-0.24838118,-0.24838118
2463170109,0,-0.18566251,3.3008637,8.611516,-0.38075987,-0.24838118,-0.24838118
2463170114,0,-0.18566251,3.3008637,8.611516,-0.4406246,-0.29236344,-0.29236344
2463170119,0,-0.20242119,3.2027059,8.757556,-0.4406246,-0.29236344,-0.29236344
2463170124,0,-0.20242119,3.2027059,8.757556,-0.5023219,-0.3381783,-0.3381783
2463170129,0,-0.31973204,3.0255425,8.975419,-0.5023219,-0.3381783,-0.3381783
2463170133,0,-0.31973204,3.0255425,8.975419,-0.55852145,-0.37299758,-0.37299758
2463170138,0,-0.5830829,2.7885265,9.29144,-0.55852145,-0.37299758,-0.37299758
2463170143,0,-0.5830829,2.7885265,9.29144,-0.5951733,-0.37666276,-0.37666276
2463170148,0,-0.7817931,2.5658755,9.834901,-0.5951733,-0.37666276,-0.37666276
2463170153,0,-0.7817931,2.5658755,9.834901,-0.6000602,-0.348563,-0.348563
2463170158,0,-0.9805033,2.2857661,10.555524,-0.6000602,-0.348563,-0.348563
2463170162,0,-0.9805033,2.2857661,10.555524,-0.55729973,-0.2874765,-0.2874765
2463170167,0,-1.045144,2.0152328,11.170808,-0.55729973,-0.2874765,-0.2874765
2463170172,0,-1.045144,2.0152328,11.170808,-0.46017227,-0.20867497,-0.20867497
2463170177,0,-1.0499321,1.7877934,11.455706,-0.46017227,-0.20867497,-0.20867497
2463170182,0,-1.0499321,1.7877934,11.455706,-0.3318907,-0.12376478,-0.12376478
2463170186,0,-0.997262,1.7494878,11.27136,-0.3318907,-0.12376478,-0.12376478
2463170191,0,-0.997262,1.7494878,11.27136,-0.21277207,-0.0437415,-0.0437415
2463170196,0,-0.9398036,1.8835573,10.58186,-0.21277207,-0.0437415,-0.0437415
2463170201,0,-0.9398036,1.8835573,10.58186,-0.14069003,0.02834054,0.02834054
2463170206,0,-0.88952756,2.2498546,9.626614,-0.14069003,0.02834054,0.02834054
2463170210,0,-0.88952756,2.2498546,9.626614,-0.15107474,0.08759441,0.08759441
2463170215,0,-0.5782947,2.6568513,8.836562,-0.15107474,0.08759441,0.08759441
2463170220,0,-0.5782947,2.6568513,8.836562,-0.23170887,0.10897468,0.10897468
2463170225,0,-0.30536744,2.6568513,8.714463,-0.23170887,0.10897468,0.10897468
2463170230,0,-0.30536744,2.6568513,8.714463,-0.3196734,0.09797911,0.09797911
2463170234,0,-0.32930845,2.6233337,8.64264,-0.3196734,0.09797911,0.09797911
2463170239,0,-0.32930845,2.6233337,8.64264,-0.3905337,0.093092196,0.093092196
2463170244,0,-0.43464878,2.5658755,8.688127,-0.3905337,0.093092196,0.093092196
2463170249,0,-0.43464878,2.5658755,8.688127,-0.42779645,0.09797911,0.09797911
2463170254,0,-0.53520095,2.460535,8.848532,-0.42779645,0.09797911,0.09797911
2463170259,0,-0.53520095,2.460535,8.848532,-0.41374657,0.10714208,0.10714208
2463170263,0,-0.7267288,2.3312538,9.023301,-0.41374657,0.10714208,0.10714208
2463170268,0,-0.7267288,2.3312538,9.023301,-0.35693613,0.13096581,0.13096581
2463170273,0,-0.6884233,2.1109967,8.891626,-0.35693613,0.13096581,0.13096581
2463170278,0,-0.6884233,2.1109967,8.891626,-0.29951486,0.15662213,0.15662213
2463170283,0,-0.6261767,1.9553803,8.726433,-0.29951486,0.15662213,0.15662213
2463170287,0,-0.6261767,1.9553803,8.726433,-0.2677499,0.17067201,0.17067201
2463170292,0,-0.66448224,1.9481981,8.817409,-0.2677499,0.17067201,0.17067201
2463170297,0,-0.66448224,1.9481981,8.817409,-0.25614345,0.17494807,0.17494807
2463170302,0,-0.6956055,1.9553803,8.961055,-0.25614345,0.17494807,0.17494807
2463170307,0,-0.6956055,1.9553803,8.961055,-0.2659173,0.17800239,0.17800239
2463170311,0,-0.81770456,1.9266511,9.231588,-0.2659173,0.17800239,0.17800239
2463170316,0,-0.81770456,1.9266511,9.231588,-0.30501264,0.20182613,0.20182613
2463170321,0,-0.8129164,1.924257,9.593097,-0.30501264,0.20182613,0.20182613
2463170326,0,-0.8129164,1.924257,9.593097,-0.36732084,0.24397579,0.24397579
2463170331,0,-0.5639301,1.8907397,9.815748,-0.36732084,0.24397579,0.24397579
2463170336,0,-0.5639301,1.8907397,9.815748,-0.43268338,0.27024296,0.27024296
2463170340,0,-0.29579103,1.9194688,9.818142,-0.43268338,0.27024296,0.27024296
2463170345,0,-0.29579103,1.9194688,9.818142,-0.49376982,0.26596692,0.26596692
2463170350,0,-0.21678579,1.9649568,9.815748,-0.49376982,0.26596692,0.26596692
2463170360,0,-0.2143917,1.950592,9.652949,-0.49376982,0.26596692,0.26596692
2463170355,0,-0.2143917,1.950592,9.652949,-0.546915,0.25313875,0.25313875
2463170364,0,-0.2143917,1.950592,9.652949,-0.5970059,0.2403106,0.2403106
2463170369,0,-0.1952389,1.8763751,9.542821,-0.5970059,0.2403106,0.2403106
2463170374,0,-0.1952389,1.8763751,9.542821,-0.64159906,0.22687156,0.22687156
2463170379,0,-0.2000271,1.751882,9.844477,-0.64159906,0.22687156,0.22687156
2463170388,0,-0.2072094,1.6010537,10.340056,-0.64159906,0.22687156,0.22687156
2463170384,0,-0.2072094,1.6010537,10.340056,-0.65381634,0.21282168,0.21282168
2463170393,0,-0.2072094,1.6010537,10.340056,-0.6153318,0.20182613,0.20182613
2463170398,0,-0.26466775,1.4334668,10.826058,-0.6153318,0.20182613,0.20182613
2463170408,0,-0.31733793,1.3113678,11.2546015,-0.6153318,0.20182613,0.20182613
2463170403,0,-0.31733793,1.3113678,11.2546015,-0.5383629,0.20182613,0.20182613
2463170413,0,-0.31733793,1.3113678,11.2546015,-0.4424572,0.21343255,0.21343255
2463170417,0,-0.30776155,1.2586975,11.599352,-0.4424572,0.21343255,0.21343255
2463170422,0,-0.30776155,1.2586975,11.599352,-0.34960577,0.2366454,0.2366454
2463170427,0,-0.24790907,1.1844805,11.711874,-0.34960577,0.2366454,0.2366454
2463170432,0,-0.24790907,1.1844805,11.711874,-0.27141508,0.27085382,0.27085382
2463170437,0,-0.07313987,1.2395447,11.391065,-0.27141508,0.27085382,0.27085382
2463170441,0,-0.07313987,1.2395447,11.391065,-0.22926542,0.30322966,0.30322966
2463170446,0,0.13275263,1.4693784,10.804511,-0.22926542,0.30322966,0.30322966
2463170451,0,0.13275263,1.4693784,10.804511,-0.23231974,0.3166687,0.3166687
2463170456,0,0.37455663,1.6680884,10.277809,-0.23231974,0.3166687,0.3166687
2463170461,0,0.37455663,1.6680884,10.277809,-0.2585869,0.30811659,0.30811659
2463170465,0,0.60439,1.8404635,9.81096,-0.2585869,0.30811659,0.30811659
2463170475,0,0.7049422,1.9984741,9.672102,-0.2585869,0.30811659,0.30811659
2463170470,0,0.7049422,1.9984741,9.672102,-0.29768226,0.2855146,0.2855146
2463170480,0,0.7049422,1.9984741,9.672102,-0.3282255,0.2488627,0.2488627
2463170485,0,0.76958287,2.0056565,9.607461,-0.3282255,0.2488627,0.2488627
