time,activity,acceleration_x,acceleration_y,acceleration_z,gyro_x,gyro_y,gyro_z
2463107130,1,1.842139,4.181892,8.240431,0,0,0
2463107140,1,1.791863,4.591283,7.7257,0,0,0
2463107150,1,1.6290643,5.024615,7.0601406,0,0,0
2463107159,1,1.6338525,5.3837295,6.2940283,0,0,0
2463107169,1,1.7032814,5.563287,5.796056,0,0,0
2463107179,1,1.8325627,5.5010405,5.7769036,0,0,0
2463107189,1,1.8325627,5.1131964,6.2652993,0,0,0
2463107194,1,1.8325627,5.1131964,6.2652993,0.22460708,-0.57763726,-0.57763726
2463107199,1,1.449507,4.5817065,7.1822395,0.22460708,-0.57763726,-0.57763726
2463107208,1,0.7671888,4.2249856,8.472659,0.22460708,-0.57763726,-0.57763726
2463107203,1,0.7671888,4.2249856,8.472659,0.015080482,-0.6356694,-0.6356694
2463107213,1,0.7671888,4.2249856,8.472659,-0.19688958,-0.6155108,-0.6155108
2463107218,1,0.32188645,4.057399,10.083887,-0.19688958,-0.6155108,-0.6155108
2463107227,1,-0.03004609,3.9305117,11.687933,-0.19688958,-0.6155108,-0.6155108
2463107223,1,-0.03004609,3.9305117,11.687933,-0.36915344,-0.5495375,-0.5495375
2463107232,1,-0.03004609,3.9305117,11.687933,-0.4595614,-0.45363173,-0.45363173
2463107237,1,-0.31973204,3.9544528,12.566567,-0.4595614,-0.45363173,-0.45363173
2463107242,1,-0.31973204,3.9544528,12.566567,-0.44795498,-0.34550866,-0.34550866
2463107247,1,-0.4059196,4.366237,12.600085,-0.44795498,-0.34550866,-0.34550866
2463107251,1,-0.4059196,4.366237,12.600085,-0.3624339,-0.26059848,-0.26059848
2463107256,1,0.039382786,5.046161,11.805244,-0.3624339,-0.26059848,-0.26059848
2463107266,1,1.1071508,5.2831774,10.378361,-0.3624339,-0.26059848,-0.26059848
2463107261,1,1.1071508,5.2831774,10.378361,-0.26713902,-0.23799649,-0.23799649
2463107275,1,1.9139619,5.2640243,9.609855,-0.26713902,-0.23799649,-0.23799649
2463107271,1,1.9139619,5.2640243,9.609855,-0.2488131,-0.3051916,-0.3051916
2463107285,1,2.0504258,4.9863095,10.19641,-0.2488131,-0.3051916,-0.3051916
2463107280,1,2.0504258,4.9863095,10.19641,-0.33738846,-0.4420253,-0.4420253
2463107290,1,2.0504258,4.9863095,10.19641,-0.47422215,-0.5825242,-0.5825242
2463107295,1,1.6889168,4.119645,11.426976,-0.47422215,-0.5825242,-0.5825242
2463107304,1,1.2986788,2.8028913,12.755701,-0.47422215,-0.5825242,-0.5825242
2463107300,1,1.2986788,2.8028913,12.755701,-0.59150815,-0.6662126,-0.6662126
2463107314,1,0.84379995,1.7925816,14.448329,-0.59150815,-0.6662126,-0.6662126
2463107309,1,0.84379995,1.7925816,14.448329,-0.64159906,-0.67415386,-0.67415386
2463107324,1,0.7073363,1.0384405,15.458639,-0.64159906,-0.67415386,-0.67415386
2463107319,1,0.7073363,1.0384405,15.458639,-0.57073873,-0.60879135,-0.60879135
2463107333,1,0.91562283,0.52849734,15.616649,-0.57073873,-0.60879135,-0.60879135
2463107328,1,0.91562283,0.52849734,15.616649,-0.39175543,-0.5037226,-0.5037226
2463107343,1,1.2867082,0.6314436,14.922361,-0.39175543,-0.5037226,-0.5037226
2463107338,1,1.2867082,0.6314436,14.922361,-0.14679867,-0.40292996,-0.40292996
2463107352,1,1.6099114,1.3448852,13.260856,-0.14679867,-0.40292996,-0.40292996
2463107348,1,1.6099114,1.3448852,13.260856,0.09815808,-0.3448978,-0.3448978
2463107357,1,1.6099114,1.3448852,13.260856,0.25637203,-0.34550866,-0.34550866
2463107362,1,1.9546616,1.9601686,11.134896,0.25637203,-0.34550866,-0.34550866
2463107372,1,2.25153,2.2929482,9.482968,0.25637203,-0.34550866,-0.34550866
2463107367,1,2.25153,2.2929482,9.482968,0.274698,-0.3986539,-0.3986539
2463107377,1,2.25153,2.2929482,9.482968,0.1635206,-0.497614,-0.497614
2463107381,1,2.1102781,2.4725056,8.628275,0.1635206,-0.497614,-0.497614
2463107386,1,2.1102781,2.4725056,8.628275,-0.028290913,-0.5990175,-0.5990175
2463107391,1,1.4902066,2.429412,8.352954,-0.028290913,-0.5990175,-0.5990175
2463107401,1,0.6403016,2.1109967,8.690522,-0.028290913,-0.5990175,-0.5990175
2463107396,1,0.6403016,2.1109967,8.690522,-0.24942395,-0.6491084,-0.6491084
2463107410,1,0.058535576,1.6944236,9.564368,-0.24942395,-0.6491084,-0.6491084
2463107405,1,0.058535576,1.6944236,9.564368,-0.43818116,-0.6167326,-0.6167326
2463107415,1,0.058535576,1.6944236,9.564368,-0.5322543,-0.52693546,-0.52693546
2463107420,1,-0.049198866,1.3951612,10.371179,-0.5322543,-0.52693546,-0.52693546
2463107429,1,-0.10426315,1.4191022,10.814087,-0.5322543,-0.52693546,-0.52693546
2463107425,1,-0.10426315,1.4191022,10.814087,-0.5029328,-0.42919713,-0.42919713
2463107434,1,-0.10426315,1.4191022,10.814087,-0.37587294,-0.3436761,-0.3436761
2463107439,1,-0.1808743,1.6656944,10.54116,-0.37587294,-0.3436761,-0.3436761
2463107449,1,-0.05398707,2.1828198,9.727166,-0.37587294,-0.3436761,-0.3436761
2463107444,1,-0.05398707,2.1828198,9.727166,-0.19627872,-0.26731798,-0.26731798
2463107458,1,0.23330477,2.7957091,8.64264,-0.19627872,-0.26731798,-0.26731798
2463107454,1,0.23330477,2.7957091,8.64264,-0.022182267,-0.22150314,-0.22150314
2463107463,1,0.23330477,2.7957091,8.64264,0.09449289,-0.22150314,-0.22150314
2463107468,1,0.59960186,3.2146764,7.6490884,0.09449289,-0.22150314,-0.22150314
2463107473,1,0.59960186,3.2146764,7.6490884,0.15557936,-0.27159405,-0.27159405
2463107478,1,0.65945435,3.573791,7.1367517,0.15557936,-0.27159405,-0.27159405
2463107482,1,0.65945435,3.573791,7.1367517,0.1983399,-0.3448978,-0.3448978
2463107487,1,0.4655324,3.8610828,6.595685,0.1983399,-0.3448978,-0.3448978
2463107492,1,0.4655324,3.8610828,6.595685,0.24171129,-0.39987564,-0.39987564
2463107497,1,0.18542281,4.1483746,6.016313,0.24171129,-0.39987564,-0.39987564
2463107502,1,0.18542281,4.1483746,6.016313,0.26431328,-0.43958184,-0.43958184
2463107506,1,-0.1880566,4.390178,5.788874,0.26431328,-0.43958184,-0.43958184
2463107511,1,-0.1880566,4.390178,5.788874,0.27164367,-0.465849,-0.465849
2463107516,1,-0.50886583,4.4141192,6.0282836,0.27164367,-0.465849,-0.465849
2463107521,1,-0.50886583,4.4141192,6.0282836,0.28935874,-0.46951422,-0.46951422
2463107526,1,-0.60941803,4.198651,6.5166802,0.28935874,-0.46951422,-0.46951422
2463107530,1,-0.60941803,4.198651,6.5166802,0.324178,-0.44691223,-0.44691223
2463107535,1,-0.48971307,3.9903643,7.000288,0.324178,-0.44691223,-0.44691223
2463107540,1,-0.48971307,3.9903643,7.000288,0.36082992,-0.42186677,-0.42186677
2463107545,1,-0.2072094,3.9185412,7.366585,0.36082992,-0.42186677,-0.42186677
2463107550,1,-0.2072094,3.9185412,7.366585,0.38587537,-0.41270378,-0.41270378
2463107555,1,0.15190542,3.9233296,7.5940247,0.38587537,-0.41270378,-0.41270378
2463107559,1,0.15190542,3.9233296,7.5940247,0.3938166,-0.42675367,-0.42675367
2463107564,1,0.28836903,4.035852,7.63233,0.3938166,-0.42675367,-0.42675367
2463107569,1,0.28836903,4.035852,7.63233,0.38770795,-0.4542426,-0.4542426
2463107574,1,0.16626999,4.0933104,7.323491,0.38770795,-0.4542426,-0.4542426
2463107579,1,0.16626999,4.0933104,7.323491,0.36754942,-0.48661843,-0.48661843
2463107583,1,-0.02765198,4.2561088,6.9548,0.36754942,-0.48661843,-0.48661843
2463107588,1,-0.02765198,4.2561088,6.9548,0.32845408,-0.51532906,-0.51532906
2463107593,1,-0.50647175,4.423696,6.859036,0.32845408,-0.51532906,-0.51532906
2463107598,1,-0.50647175,4.423696,6.859036,0.2985217,-0.5177725,-0.5177725
2463107603,1,-1.1217551,4.3566613,6.8470654,0.2985217,-0.5177725,-0.5177725
2463107607,1,-1.1217551,4.3566613,6.8470654,0.30096516,-0.4835641,-0.4835641
2463107612,1,-1.3851061,4.016699,6.976347,0.30096516,-0.4835641,-0.4835641
2463107622,1,-1.4952345,3.5139387,7.467137,0.30096516,-0.4835641,-0.4835641
2463107617,1,-1.4952345,3.5139387,7.467137,0.33028668,-0.42675367,-0.42675367
2463107627,1,-1.4952345,3.5139387,7.467137,0.3748798,-0.35528252,-0.35528252
2463107632,1,-1.6173335,2.747827,8.451112,0.3748798,-0.35528252,-0.35528252
2463107641,1,-1.6723979,2.115785,9.506909,0.3748798,-0.35528252,-0.35528252
2463107636,1,-1.6723979,2.115785,9.506909,0.44512925,-0.25754416,-0.25754416
2463107646,1,-1.6723979,2.115785,9.506909,0.5453111,-0.12254305,-0.12254305
2463107651,1,-1.7298563,2.1780314,9.86363,0.5453111,-0.12254305,-0.12254305
2463107660,1,-1.7370385,2.9609017,9.468604,0.5453111,-0.12254305,-0.12254305
2463107656,1,-1.7370385,2.9609017,9.468604,0.6448821,0.036281783,0.036281783
2463107665,1,-1.7370385,2.9609017,9.468604,0.7169641,0.18105672,0.18105672
2463107670,1,-1.6412746,4.1411924,8.1781845,0.7169641,0.18105672,0.18105672
2463107675,1,-1.6412746,4.1411924,8.1781845,0.740177,0.27451903,0.27451903
2463107680,1,-1.5694517,5.410064,6.231782,0.740177,0.27451903,0.27451903
2463107689,1,-1.5862103,6.494591,4.6444945,0.740177,0.27451903,0.27451903
2463107684,1,-1.5862103,6.494591,4.6444945,0.672371,0.2952884,0.2952884
2463107694,1,-1.5862103,6.494591,4.6444945,0.50621575,0.25802568,0.25802568
2463107699,1,-1.7801323,6.9015884,4.3691735,0.50621575,0.25802568,0.25802568
2463107704,1,-1.7801323,6.9015884,4.3691735,0.2985217,0.193274,0.193274
2463107709,1,-2.0770004,6.4491034,5.568617,0.2985217,0.193274,0.193274
2463107713,1,-2.0770004,6.4491034,5.568617,0.13358822,0.13524187,0.13524187
2463107718,1,-2.189523,5.455552,6.9428296,0.13358822,0.13524187,0.13524187
2463107723,1,-2.189523,5.455552,6.9428296,0.040125936,0.134631,0.134631
2463107728,1,-2.1416411,4.28005,8.041721,0.040125936,0.134631,0.134631
2463107733,1,-2.1416411,4.28005,8.041721,0.009582698,0.22198465,0.22198465
2463107737,1,-2.0243304,3.4636626,8.944296,0.009582698,0.22198465,0.22198465
2463107742,1,-2.0243304,3.4636626,8.944296,0.009582698,0.36981392,0.36981392
2463107747,1,-1.8806844,3.2888932,9.710408,0.009582698,0.36981392,0.36981392
2463107752,1,-1.8806844,3.2888932,9.710408,0.01752394,0.5335257,0.5335257
2463107757,1,-1.4904464,3.9496646,9.77026,0.01752394,0.5335257,0.5335257
2463107761,1,-1.4904464,3.9496646,9.77026,0.01874567,0.64836824,0.64836824
2463107766,1,-0.51604813,4.854634,8.824591,0.01874567,0.64836824,0.64836824
2463107771,1,-0.51604813,4.854634,8.824591,-0.011186702,0.63859445,0.63859445
2463107776,1,0.22612247,5.572863,7.584448,-0.011186702,0.63859445,0.63859445
2463107781,1,0.22612247,5.572863,7.584448,-0.11259025,0.49015427,0.49015427
2463107785,1,0.16626999,5.9966187,6.904524,-0.11259025,0.49015427,0.49015427
2463107795,1,-0.925439,5.7093267,7.4240437,-0.11259025,0.49015427,0.49015427
2463107790,1,-0.925439,5.7093267,7.4240437,-0.31356475,0.26352346,0.26352346
2463107800,1,-0.925439,5.7093267,7.4240437,-0.5805126,0.07659885,0.07659885
2463107805,1,-2.8694472,4.8019633,9.1454,-0.5805126,0.07659885,0.07659885
2463107810,1,-2.8694472,4.8019633,9.1454,-0.81264114,0.05521859,0.05521859
2463107814,1,-4.7033267,3.54985,11.573016,-0.81264114,0.05521859,0.05521859
2463107819,1,-4.7033267,3.54985,11.573016,-0.89388615,0.2299259,0.2299259
2463107824,1,-5.347339,2.3935003,12.8778,-0.89388615,0.2299259,0.2299259
2463107829,1,-5.347339,2.3935003,12.8778,-0.8108086,0.5017607,0.5017607
2463107834,1,-4.9355545,1.8380694,13.059752,-0.8108086,0.5017607,0.5017607
2463107838,1,-4.9355545,1.8380694,13.059752,-0.65320545,0.7290024,0.7290024
2463107843,1,-4.049738,1.9051042,12.590508,-0.65320545,0.7290024,0.7290024
2463107848,1,-4.049738,1.9051042,12.590508,-0.5224804,0.8352929,0.8352929
2463107853,1,-3.302779,2.2546425,11.936919,-0.5224804,0.8352929,0.8352929
2463107858,1,-3.302779,2.2546425,11.936919,-0.47910908,0.8328494,0.8328494
2463107862,1,-2.9269056,2.5012348,11.321636,-0.47910908,0.8328494,0.8328494
2463107867,1,-2.9269056,2.5012348,11.321636,-0.5383629,0.7931432,0.7931432
2463107872,1,-2.7497423,2.5898166,10.598618,-0.5383629,0.7931432,0.7931432
2463107877,1,-2.7497423,2.5898166,10.598618,-0.6770292,0.77970415,0.77970415
2463107882,1,-2.45048,2.532358,9.964182,-0.6770292,0.77970415,0.77970415
2463107887,1,-2.45048,2.532358,9.964182,-0.84623873,0.8059714,0.8059714
2463107891,1,-1.9046254,2.4533527,10.275415,-0.84623873,0.8059714,0.8059714
2463107901,1,-1.1696371,2.4892642,11.16602,-0.84623873,0.8059714,0.8059714
2463107896,1,-1.1696371,2.4892642,11.16602,-0.97879636,0.8328494,0.8328494
2463107906,1,-1.1696371,2.4892642,11.16602,-1.0453807,0.81452346,0.81452346
2463107911,1,-0.42028418,2.5874224,11.980013,-1.0453807,0.81452346,0.81452346
2463107915,1,-0.42028418,2.5874224,11.980013,-1.0630958,0.7406088,0.7406088
2463107920,1,-0.04201658,2.6831863,12.377434,-1.0630958,0.7406088,0.7406088
2463107925,1,-0.04201658,2.6831863,12.377434,-1.0545436,0.6337075,0.6337075
2463107930,1,-0.1904507,2.7574034,12.494744,-1.0545436,0.6337075,0.6337075
2463107935,1,-0.1904507,2.7574034,12.494744,-1.0209461,0.5347474,0.5347474
2463107939,1,-0.89192164,2.8100736,12.29364,-1.0209461,0.5347474,0.5347474
2463107944,1,-0.89192164,2.8100736,12.29364,-0.94397706,0.49198687,0.49198687
2463107949,1,-1.6340923,2.7933147,11.831579,-0.94397706,0.49198687,0.49198687
2463107954,1,-1.6340923,2.7933147,11.831579,-0.81630635,0.5170323,0.5170323
2463107959,1,-1.990813,2.6568513,11.053497,-0.81630635,0.5170323,0.5170323
2463107964,1,-1.990813,2.6568513,11.053497,-0.6605359,0.5836166,0.5836166
2463107968,1,-2.0099657,2.6807923,10.136557,-0.6605359,0.5836166,0.5836166
2463107973,1,-2.0099657,2.6807923,10.136557,-0.50476533,0.6544769,0.6544769
2463107978,1,-1.8687139,2.9249904,9.415933,-0.50476533,0.6544769,0.6544769
2463107983,1,-1.8687139,2.9249904,9.415933,-0.3630448,0.7088439,0.7088439
2463107988,1,-1.435382,3.308046,8.882049,-0.3630448,0.7088439,0.7088439
2463107992,1,-1.435382,3.308046,8.882049,-0.24759136,0.7259481,0.7259481
2463107997,1,-0.63335896,3.4636626,8.032145,-0.24759136,0.7259481,0.7259481
2463108002,1,-0.63335896,3.4636626,8.032145,-0.172455,0.6996809,0.6996809
2463108007,1,-0.02046968,3.5330913,7.4336195,-0.172455,0.6996809,0.6996809
2463108016,1,0.20696968,3.5690029,7.002682,-0.172455,0.6996809,0.6996809
2463108012,1,0.20696968,3.5690029,7.002682,-0.13763571,0.63676184,0.63676184
2463108021,1,0.20696968,3.5690029,7.002682,-0.12114236,0.57139933,0.57139933
2463108026,1,0.12796444,3.525909,6.712996,-0.12114236,0.57139933,0.57139933
2463108031,1,0.12796444,3.525909,6.712996,-0.11747717,0.52375185,0.52375185
2463108036,1,-0.16172151,3.355928,6.617232,-0.11747717,0.52375185,0.52375185
2463108041,1,-0.16172151,3.355928,6.617232,-0.11747717,0.50848025,0.50848025
2463108045,1,-0.3819786,3.1500356,6.514286,-0.11747717,0.50848025,0.50848025
2463108050,1,-0.3819786,3.1500356,6.514286,-0.11808804,0.5213084,0.5213084
2463108055,1,-0.49450126,3.0087838,6.3347287,-0.11808804,0.5213084,0.5213084
2463108060,1,-0.49450126,3.0087838,6.3347287,-0.12664014,0.5402452,0.5402452
2463108065,1,-0.4226783,2.917808,6.258117,-0.12664014,0.5402452,0.5402452
2463108069,1,-0.4226783,2.917808,6.258117,-0.13763571,0.5451321,0.5451321
2463108074,1,-0.23115039,2.8292263,6.6076555,-0.13763571,0.5451321,0.5451321
2463108079,1,-0.23115039,2.8292263,6.6076555,-0.12541841,0.5439104,0.5439104
2463108084,1,0.0034713,2.7382505,7.4288316,-0.12541841,0.5439104,0.5439104
2463108089,1,0.0034713,2.7382505,7.4288316,-0.064331934,0.5494082,0.5494082
2463108093,1,0.19499919,2.716704,8.314648,-0.064331934,0.5494082,0.5494082
2463108098,1,0.19499919,2.716704,8.314648,0.043791123,0.5616255,0.5616255
2463108103,1,0.64508975,2.6688218,8.398442,0.043791123,0.5616255,0.5616255
2463108108,1,0.64508975,2.6688218,8.398442,0.15924455,0.5524625,0.5524625
2463108113,1,1.0257515,2.8172557,7.948351,0.15924455,0.5524625,0.5524625
2463108117,1,1.0257515,2.8172557,7.948351,0.24965253,0.49137598,0.49137598
2463108122,1,1.2507967,3.1189122,7.242092,0.24965253,0.49137598,0.49137598
2463108127,1,1.2507967,3.1189122,7.242092,0.29668912,0.3838638,0.3838638
2463108132,1,1.4183836,3.3224108,6.2629056,0.29668912,0.3838638,0.3838638
2463108137,1,1.4183836,3.3224108,6.2629056,0.27530885,0.25008443,0.25008443
2463108142,1,1.3393784,3.4828153,5.5374937,0.27530885,0.25008443,0.25008443
2463108146,1,1.3393784,3.4828153,5.5374937,0.1861226,0.11080728,0.11080728
2463108151,1,0.8198589,3.7557425,5.6284695,0.1861226,0.11080728,0.11080728
2463108156,1,0.8198589,3.7557425,5.6284695,0.072501756,0.00024076342,0.00024076342
2463108161,1,0.044170976,4.007123,6.3897924,0.072501756,0.00024076342,0.00024076342
2463108170,1,-0.50647175,4.0095167,7.2325153,0.072501756,0.00024076342,0.00024076342
2463108166,1,-0.50647175,4.0095167,7.2325153,-0.0148518905,-0.057791386,-0.057791386
2463108180,1,-0.60702384,3.8562949,7.7687936,-0.0148518905,-0.057791386,-0.057791386
2463108175,1,-0.60702384,3.8562949,7.7687936,-0.050282042,-0.067565225,-0.067565225
2463108185,1,-0.60702384,3.8562949,7.7687936,-0.038675614,-0.059013113,-0.059013113
2463108190,1,-0.3556435,3.7509544,8.180578,-0.038675614,-0.059013113,-0.059013113
2463108194,1,-0.3556435,3.7509544,8.180578,-0.0038563253,-0.05473706,-0.05473706
2463108199,1,-0.03722839,3.839536,8.554058,-0.0038563253,-0.05473706,-0.05473706
2463108204,1,-0.03722839,3.839536,8.554058,0.012637023,-0.070619546,-0.070619546
2463108209,1,0.28358084,3.9783938,9.0687895,0.012637023,-0.070619546,-0.070619546
2463108214,1,0.28358084,3.9783938,9.0687895,-0.0105758365,-0.1060497,-0.1060497
2463108219,1,0.7336714,3.9424822,9.813354,-0.0105758365,-0.1060497,-0.1060497
2463108223,1,0.7336714,3.9424822,9.813354,-0.071662314,-0.1616384,-0.1616384
2463108228,1,1.0544806,3.762925,10.754235,-0.071662314,-0.1616384,-0.1616384
2463108233,1,1.0544806,3.762925,10.754235,-0.15718338,-0.22455746,-0.22455746
2463108238,1,1.0879979,3.4660566,11.599352,-0.15718338,-0.22455746,-0.22455746
2463108243,1,1.0879979,3.4660566,11.599352,-0.24270444,-0.2740375,-0.2740375
2463108247,1,0.78634155,3.1715825,12.159571,-0.24270444,-0.2740375,-0.2740375
2463108252,1,0.78634155,3.1715825,12.159571,-0.29462793,-0.28564394,-0.28564394
2463108257,1,0.1758464,3.0494835,12.33434,-0.29462793,-0.28564394,-0.28564394
2463108262,1,0.1758464,3.0494835,12.33434,-0.3044018,-0.2465486,-0.2465486
2463108267,1,-0.7147584,3.3870513,12.413345,-0.3044018,-0.2465486,-0.2465486
2463108271,1,-0.7147584,3.3870513,12.413345,-0.26897162,-0.15614061,-0.15614061
2463108276,1,-1.215125,3.8826299,12.006348,-0.26897162,-0.15614061,-0.15614061
2463108281,1,-1.215125,3.8826299,12.006348,-0.20788515,-0.040076308,-0.040076308
2463108286,1,-0.73151696,3.8586888,10.940974,-0.20788515,-0.040076308,-0.040076308
2463108291,1,-0.73151696,3.8586888,10.940974,-0.18528315,0.046666484,0.046666484
2463108296,1,0.19260511,3.7294075,10.481307,-0.18528315,0.046666484,0.046666484
2463108300,1,0.19260511,3.7294075,10.481307,-0.22987628,0.054607723,0.054607723
2463108305,1,0.92759335,3.8946004,11.216296,-0.22987628,0.054607723,0.054607723
2463108315,1,1.4686598,3.8419302,12.698243,-0.22987628,0.054607723,0.054607723
2463108310,1,1.4686598,3.8419302,12.698243,-0.32211685,-0.007700478,-0.007700478
2463108320,1,1.4686598,3.8419302,12.698243,-0.41496828,-0.10910402,-0.10910402
2463108324,1,1.6003351,3.2697406,14.407629,-0.41496828,-0.10910402,-0.10910402
2463108329,1,1.6003351,3.2697406,14.407629,-0.45772883,-0.19340336,-0.19340336
2463108334,1,1.2747377,2.5108113,15.853664,-0.45772883,-0.19340336,-0.19340336
2463108339,1,1.2747377,2.5108113,15.853664,-0.40641618,-0.19706854,-0.19706854
2463108344,1,1.6003351,1.414314,16.06674,-0.40641618,-0.19706854,-0.19706854
2463108353,1,2.0504258,0.64341414,15.563979,-0.40641618,-0.19706854,-0.19706854
2463108348,1,2.0504258,0.64341414,15.563979,-0.27141508,-0.1616384,-0.1616384
2463108358,1,2.0504258,0.64341414,15.563979,-0.08387961,-0.14209072,-0.14209072
2463108363,1,2.5005162,0.39682195,14.613522,-0.08387961,-0.14209072,-0.14209072
2463108368,1,2.5005162,0.39682195,14.613522,0.09632548,-0.17507741,-0.17507741
2463108372,1,2.7806258,0.61468494,13.370985,0.09632548,-0.17507741,-0.17507741
2463108377,1,2.7806258,0.61468494,13.370985,0.18978779,-0.26304194,-0.26304194
2463108382,1,2.6058567,0.9642233,12.073383,0.18978779,-0.26304194,-0.26304194
2463108387,1,2.6058567,0.9642233,12.073383,0.15374677,-0.3589477,-0.3589477
2463108392,1,2.495728,1.000135,10.919427,0.15374677,-0.3589477,-0.3589477
2463108397,1,2.495728,1.000135,10.919427,0.0053066453,-0.4334732,-0.4334732
2463108401,1,2.3999643,0.83494204,10.268233,0.0053066453,-0.4334732,-0.4334732
2463108406,1,2.3999643,0.83494204,10.268233,-0.19444613,-0.48478583,-0.48478583
2463108411,1,2.0983076,0.73438984,10.045581,-0.19444613,-0.48478583,-0.48478583
2463108416,1,2.0983076,0.73438984,10.045581,-0.38137072,-0.5171616,-0.5171616
2463108421,1,1.5859706,0.76790726,10.071917,-0.38137072,-0.5171616,-0.5171616
2463108425,1,1.5859706,0.76790726,10.071917,-0.51148486,-0.533655,-0.533655
2463108430,1,0.867741,0.98816437,10.091069,-0.51148486,-0.533655,-0.533655
2463108435,1,0.867741,0.98816437,10.091069,-0.5689061,-0.5312115,-0.5312115
2463108440,1,0.21654609,1.2898208,9.990517,-0.5689061,-0.5312115,-0.5312115
2463108445,1,0.21654609,1.2898208,9.990517,-0.55791056,-0.50860953,-0.50860953
2463108449,1,-0.25748548,1.5579599,9.693649,-0.55791056,-0.50860953,-0.50860953
2463108454,1,-0.25748548,1.5579599,9.693649,-0.49743503,-0.46951422,-0.46951422
2463108459,1,-0.5256245,1.7949756,9.413539,-0.49743503,-0.46951422,-0.46951422
2463108464,1,-0.5256245,1.7949756,9.413539,-0.39603147,-0.4175907,-0.4175907
2463108469,1,-0.59265924,2.0822675,9.233982,-0.39603147,-0.4175907,-0.4175907
2463108474,1,-0.59265924,2.0822675,9.233982,-0.2640847,-0.36505634,-0.36505634
2463108478,1,-0.44661927,2.3743474,9.085548,-0.2640847,-0.36505634,-0.36505634
2463108488,1,-0.14496282,2.6831863,8.862897,-0.2640847,-0.36505634,-0.36505634
2463108483,1,-0.14496282,2.6831863,8.862897,-0.116866305,-0.32718274,-0.32718274
2463108493,1,-0.14496282,2.6831863,8.862897,0.024854317,-0.31679803,-0.31679803
2463108498,1,0.21175787,2.9513254,8.458294,0.024854317,-0.31679803,-0.31679803
2463108502,1,0.21175787,2.9513254,8.458294,0.14091861,-0.33206964,-0.33206964
2463108507,1,0.47750285,3.1739767,7.9579277,0.14091861,-0.33206964,-0.33206964
2463108512,1,0.47750285,3.1739767,7.9579277,0.22888313,-0.36505634,-0.36505634
2463108517,1,0.61636055,3.3487458,7.4551663,0.22888313,-0.36505634,-0.36505634
2463108522,1,0.61636055,3.3487458,7.4551663,0.29119134,-0.40964946,-0.40964946
2463108526,1,0.63072515,3.4876037,7.0146527,0.29119134,-0.40964946,-0.40964946
2463108531,1,0.63072515,3.4876037,7.0146527,0.3382279,-0.46523815,-0.46523815
2463108536,1,0.49186745,3.523515,6.660326,0.3382279,-0.46523815,-0.46523815
2463108541,1,0.49186745,3.523515,6.660326,0.37426892,-0.5226594,-0.5226594
2463108546,1,0.25245756,3.523515,6.3850045,0.37426892,-0.5226594,-0.5226594
2463108555,1,-0.21917988,3.5426679,6.2461467,0.37426892,-0.5226594,-0.5226594
2463108551,1,-0.21917988,3.5426679,6.2461467,0.40725562,-0.57213944,-0.57213944
2463108560,1,-0.21917988,3.5426679,6.2461467,0.4445184,-0.59046537,-0.59046537
2463108565,1,-0.6716646,3.5642145,6.1934767,0.4445184,-0.59046537,-0.59046537
2463108570,1,-0.6716646,3.5642145,6.1934767,0.48483545,-0.5678634,-0.5678634
2463108575,1,-0.9541682,3.597732,6.1958704,0.48483545,-0.5678634,-0.5678634
2463108579,1,-0.9541682,3.597732,6.1958704,0.52576345,-0.52327025,-0.52327025
2463108584,1,-0.9541682,3.6168847,6.1216536,0.52576345,-0.52327025,-0.52327025
2463108589,1,-0.9541682,3.6168847,6.1216536,0.5538632,-0.48234236,-0.48234236
2463108594,1,-0.80333996,3.5833676,6.0929246,0.5538632,-0.48234236,-0.48234236
2463108599,1,-0.80333996,3.5833676,6.0929246,0.56852394,-0.46768162,-0.46768162
2463108603,1,-0.6956055,3.5187268,6.2174177,0.56852394,-0.46768162,-0.46768162
2463108608,1,-0.6956055,3.5187268,6.2174177,0.5807413,-0.4805098,-0.4805098
2463108613,1,-0.71954656,3.4373276,6.492739,0.5807413,-0.4805098,-0.4805098
2463108618,1,-0.71954656,3.4373276,6.492739,0.5960129,-0.5037226,-0.5037226
2463108623,1,-0.8153105,3.3008637,6.8207307,0.5960129,-0.5037226,-0.5037226
2463108627,1,-0.8153105,3.3008637,6.8207307,0.6076193,-0.5196051,-0.5196051
2463108632,1,-0.94459176,3.1452472,7.345038,0.6076193,-0.5196051,-0.5196051
2463108637,1,-0.94459176,3.1452472,7.345038,0.61861485,-0.50616604,-0.50616604
2463108642,1,-1.1600606,2.9585078,8.16382,0.61861485,-0.50616604,-0.50616604
2463108647,1,-1.1600606,2.9585078,8.16382,0.6479364,-0.44446877,-0.44446877
2463108652,1,-1.2438542,2.8411968,8.843744,0.6479364,-0.44446877,-0.44446877
2463108656,1,-1.2438542,2.8411968,8.843744,0.6974164,-0.3430652,-0.3430652
2463108661,1,-1.3061007,2.8388028,9.006543,0.6974164,-0.3430652,-0.3430652
2463108671,1,-1.456929,3.0997596,8.534905,0.6974164,-0.3430652,-0.3430652
2463108666,1,-1.456929,3.0997596,8.534905,0.7389552,-0.21356189,-0.21356189
2463108676,1,-1.456929,3.0997596,8.534905,0.73406833,-0.06695436,-0.06695436
2463108680,1,-1.6197276,3.5881555,7.536566,0.73406833,-0.06695436,-0.06695436
2463108685,1,-1.6197276,3.5881555,7.536566,0.6546559,0.071711935,0.071711935
2463108690,1,-1.701127,4.2034388,6.3586693,0.6546559,0.071711935,0.071711935
2463108695,1,-1.701127,4.2034388,6.3586693,0.49155498,0.18105672,0.18105672
2463108700,1,-1.823226,4.7205644,5.616499,0.49155498,0.18105672,0.18105672
2463108704,1,-1.823226,4.7205644,5.616499,0.27836317,0.27390817,0.27390817
2463108709,1,-1.7873147,5.106014,5.5614347,0.27836317,0.27390817,0.27390817
2463108714,1,-1.7873147,5.106014,5.5614347,0.058451876,0.33743808,0.33743808
2463108719,1,-1.2701893,5.1562905,6.2629056,0.058451876,0.33743808,0.33743808
2463108724,1,-1.2701893,5.1562905,6.2629056,-0.12419668,0.33621636,0.33621636
2463108729,1,-0.67645276,4.900121,7.799917,-0.12419668,0.33621636,0.33621636
2463108733,1,-0.67645276,4.900121,7.799917,-0.22193503,0.28123853,0.28123853
2463108738,1,-0.50168353,4.469184,9.47818,-0.22193503,0.28123853,0.28123853
2463108743,1,-0.50168353,4.469184,9.47818,-0.2121612,0.24092147,0.24092147
2463108748,1,-0.44901338,3.9496646,10.574677,-0.2121612,0.24092147,0.24092147
2463108753,1,-0.44901338,3.9496646,10.574677,-0.14191176,0.2488627,0.2488627
2463108757,1,-0.43943697,3.5881555,11.233054,-0.14191176,0.2488627,0.2488627
2463108767,1,-0.6596941,3.5857615,11.783697,-0.14191176,0.2488627,0.2488627
2463108762,1,-0.6596941,3.5857615,11.783697,-0.064331934,0.29773188,0.29773188
2463108777,1,-0.7410934,4.0502167,11.635263,-0.064331934,0.29773188,0.29773188
2463108772,1,-0.7410934,4.0502167,11.635263,-0.0008020017,0.38875073,0.38875073
2463108781,1,-0.7410934,4.0502167,11.635263,0.022410858,0.5042042,0.5042042
2463108786,1,-0.08032216,4.253715,10.153316,0.022410858,0.5042042,0.5042042
2463108796,1,0.6498779,4.5481887,8.779103,0.022410858,0.5042042,0.5042042
2463108791,1,0.6498779,4.5481887,8.779103,-0.047227718,0.5695667,0.5695667
2463108801,1,0.6498779,4.5481887,8.779103,-0.23781753,0.53658,0.53658
2463108806,1,1.1526387,5.0677085,8.266766,-0.23781753,0.53658,0.53658
2463108815,1,1.5165417,5.0940433,9.289046,-0.23781753,0.53658,0.53658
2463108810,1,1.5165417,5.0940433,9.289046,-0.52370214,0.40218976,0.40218976
2463108825,1,1.2005206,4.4811544,11.699904,-0.52370214,0.40218976,0.40218976
2463108820,1,1.2005206,4.4811544,11.699904,-0.80042386,0.18105672,0.18105672
2463108834,1,0.190211,3.5905497,14.120338,-0.80042386,0.18105672,0.18105672
2463108830,1,0.190211,3.5905497,14.120338,-0.9366467,-0.048628416,-0.048628416
2463108844,1,-0.90628624,2.769374,15.420333,-0.9366467,-0.048628416,-0.048628416
2463108839,1,-0.90628624,2.769374,15.420333,-0.8755602,-0.19218163,-0.19218163
2463108849,1,-0.90628624,2.769374,15.420333,-0.6611467,-0.23616388,-0.23616388
2463108854,1,-1.8543494,2.2498546,15.463427,-0.6611467,-0.23616388,-0.23616388
2463108858,1,-1.8543494,2.2498546,15.463427,-0.38259247,-0.21905968,-0.21905968
2463108863,1,-2.6659489,2.0798736,14.601551,-0.38259247,-0.21905968,-0.21905968
2463108873,1,-2.962817,2.0343854,13.054964,-0.38259247,-0.21905968,-0.21905968
2463108868,1,-2.962817,2.0343854,13.054964,-0.11503371,-0.16713618,-0.16713618
2463108878,1,-2.962817,2.0343854,13.054964,0.058451876,-0.11521267,-0.11521267
2463108882,1,-2.6755252,2.0487502,11.415006,0.058451876,-0.11521267,-0.11521267
2463108892,1,-2.036301,2.096632,10.653683,0.058451876,-0.11521267,-0.11521267
2463108887,1,-2.036301,2.096632,10.653683,0.07799954,-0.104217105,-0.104217105
2463108897,1,-2.036301,2.096632,10.653683,-0.052114636,-0.14636678,-0.14636678
2463108902,1,-1.3061007,1.9673507,10.782964,-0.052114636,-0.14636678,-0.14636678
2463108907,1,-1.3061007,1.9673507,10.782964,-0.27813458,-0.21844882,-0.21844882
2463108911,1,-0.8655865,1.6417534,11.503588,-0.27813458,-0.21844882,-0.21844882
2463108916,1,-0.8655865,1.6417534,11.503588,-0.5310325,-0.26731798,-0.26731798
2463108921,1,-0.8153105,1.2922149,12.432498,-0.5310325,-0.26731798,-0.26731798
2463108926,1,-0.8153105,1.2922149,12.432498,-0.74727863,-0.2569333,-0.2569333
2463108931,1,-0.94698596,0.9211296,13.162698,-0.74727863,-0.2569333,-0.2569333
2463108935,1,-0.94698596,0.9211296,13.162698,-0.87922543,-0.18301865,-0.18301865
2463108940,1,-1.1121788,0.5715912,13.706158,-0.87922543,-0.18301865,-0.18301865
2463108945,1,-1.1121788,0.5715912,13.706158,-0.8896101,-0.06817609,-0.06817609
2463108950,1,-1.4258057,0.43991575,13.921627,-0.8896101,-0.06817609,-0.06817609
2463108955,1,-1.4258057,0.43991575,13.921627,-0.76682633,0.07659885,0.07659885
2463108959,1,-1.823226,0.59792626,13.35662,-0.76682633,0.07659885,0.07659885
2463108964,1,-1.823226,0.59792626,13.35662,-0.54630417,0.2299259,0.2299259
2463108969,1,-1.9716601,0.85888296,11.994378,-0.54630417,0.2299259,0.2299259
2463108974,1,-1.9716601,0.85888296,11.994378,-0.28729758,0.35332057,0.35332057
2463108979,1,-2.0075717,1.1653277,10.275415,-0.28729758,0.35332057,0.35332057
2463108984,1,-2.0075717,1.1653277,10.275415,-0.0423408,0.45228064,0.45228064
2463108988,1,-2.0698183,1.581901,8.657004,-0.0423408,0.45228064,0.45228064
2463108993,1,-2.0698183,1.581901,8.657004,0.15863368,0.53841263,0.53841263
2463108998,1,-1.7514032,1.9745331,7.1678743,0.15863368,0.53841263,0.53841263
2463109003,1,-1.7514032,1.9745331,7.1678743,0.29485652,0.59827733,0.59827733
2463109008,1,-1.2677952,2.2929482,6.0761657,0.29485652,0.59827733,0.59827733
2463109012,1,-1.2677952,2.2929482,6.0761657,0.36571681,0.62454456,0.62454456
2463109017,1,-0.7458817,2.5203876,5.40103,0.36571681,0.62454456,0.62454456
2463109022,1,-0.7458817,2.5203876,5.40103,0.38221017,0.6275989,0.6275989
2463109027,1,-0.23354448,2.676004,4.9988217,0.38221017,0.6275989,0.6275989
2463109036,1,0.13275263,2.771768,4.9102397,0.38221017,0.6275989,0.6275989
2463109032,1,0.13275263,2.771768,4.9102397,0.35349953,0.6159924,0.6159924
2463109041,1,0.13275263,2.771768,4.9102397,0.29607823,0.60010993,0.60010993
2463109046,1,0.336251,2.8627439,5.039521,0.29607823,0.60010993,0.60010993
2463109051,1,0.336251,2.8627439,5.039521,0.22949399,0.58789265,0.58789265
2463109056,1,0.4583501,2.9800546,5.262172,0.22949399,0.58789265,0.58789265
2463109061,1,0.4583501,2.9800546,5.262172,0.16474234,0.581784,0.581784
2463109065,1,0.5660845,3.1332767,5.329207,0.16474234,0.581784,0.581784
2463109070,1,0.5660845,3.1332767,5.329207,0.10854278,0.5665124,0.5665124
2463109075,1,0.6522721,3.2864993,5.1688027,0.10854278,0.5665124,0.5665124
2463109085,1,0.7264892,3.425357,5.01558,0.10854278,0.5665124,0.5665124
2463109080,1,0.7264892,3.425357,5.01558,0.057230145,0.5298605,0.5298605
2463109089,1,0.7264892,3.425357,5.01558,0.0046957806,0.4651088,0.4651088
2463109094,1,0.7815534,3.4828153,4.9078455,0.0046957806,0.4651088,0.4651088
2463109099,1,0.7815534,3.4828153,4.9078455,-0.053947233,0.37042478,0.37042478
2463109104,1,0.6786071,3.3726869,4.8336287,-0.053947233,0.37042478,0.37042478
2463109109,1,0.6786071,3.3726869,4.8336287,-0.11442284,0.27085382,0.27085382
2463109113,1,0.36976835,3.1787648,4.8862987,-0.11442284,0.27085382,0.27085382
2463109123,1,0.080082476,3.0279365,5.3004775,-0.11442284,0.27085382,0.27085382
2463109118,1,0.080082476,3.0279365,5.3004775,-0.16756807,0.2006044,0.2006044
2463109128,1,0.080082476,3.0279365,5.3004775,-0.19688958,0.16945028,0.16945028
2463109133,1,-0.03483428,2.9225962,5.93252,-0.19688958,0.16945028,0.16945028
2463109137,1,-0.03483428,2.9225962,5.93252,-0.20116563,0.1554004,0.1554004
2463109142,1,0.22851658,2.8555615,6.6076555,-0.20116563,0.1554004,0.1554004
2463109152,1,0.5972078,2.7933147,7.414467,-0.20116563,0.1554004,0.1554004
2463109147,1,0.5972078,2.7933147,7.414467,-0.19383526,0.13402013,0.13402013
2463109157,1,0.5972078,2.7933147,7.414467,-0.18406142,0.09553566,0.09553566
2463109162,1,0.822253,2.8651378,8.139879,-0.18406142,0.09553566,0.09553566
2463109166,1,0.822253,2.8651378,8.139879,-0.18222883,0.051553402,0.051553402
2463109171,1,0.8533764,3.0207543,8.630669,-0.18222883,0.051553402,0.051553402
2463109176,1,0.8533764,3.0207543,8.630669,-0.18894835,0.008182004,0.008182004
2463109181,1,0.7815534,3.2146764,8.994572,-0.18894835,0.008182004,0.008182004
2463109186,1,0.7815534,3.2146764,8.994572,-0.18833748,-0.036411118,-0.036411118
2463109190,1,0.6546662,3.3343813,9.380022,-0.18833748,-0.036411118,-0.036411118
2463109195,1,0.6546662,3.3343813,9.380022,-0.15962684,-0.08955635,-0.08955635
2463109200,1,0.55890214,3.3607163,9.703225,-0.15962684,-0.08955635,-0.08955635
2463109210,1,0.59960186,3.3176227,9.980941,-0.15962684,-0.08955635,-0.08955635
2463109205,1,0.59960186,3.3176227,9.980941,-0.085101336,-0.14147985,-0.14147985
2463109214,1,0.59960186,3.3176227,9.980941,0.034628153,-0.18851644,-0.18851644
2463109219,1,1.0042046,3.2912872,10.203592,0.034628153,-0.18851644,-0.18851644
2463109224,1,1.0042046,3.2912872,10.203592,0.1653532,-0.25021377,-0.25021377
2463109229,1,1.4614774,3.4947858,10.596224,0.1653532,-0.25021377,-0.25021377
2463109239,1,1.6075175,3.7988362,10.842816,0.1653532,-0.25021377,-0.25021377
2463109234,1,1.6075175,3.7988362,10.842816,0.25576118,-0.35528252,-0.35528252
2463109248,1,1.3393784,3.9233296,11.065468,0.25576118,-0.35528252,-0.35528252
2463109243,1,1.3393784,3.9233296,11.065468,0.24232215,-0.4902836,-0.4902836
2463109253,1,1.3393784,3.9233296,11.065468,0.12014921,-0.59290886,-0.59290886
2463109258,1,0.8342235,3.865871,11.448523,0.12014921,-0.59290886,-0.59290886
2463109267,1,0.3410392,3.6120965,12.070989,0.12014921,-0.59290886,-0.59290886
2463109263,1,0.3410392,3.6120965,12.070989,-0.058223285,-0.62100863,-0.62100863
2463109272,1,0.3410392,3.6120965,12.070989,-0.21582639,-0.5709177,-0.5709177
2463109277,1,0.022624075,3.40381,13.031023,-0.21582639,-0.5709177,-0.5709177
2463109282,1,0.022624075,3.40381,13.031023,-0.28241065,-0.47012508,-0.47012508
2463109287,1,0.3769507,3.3750808,13.830652,-0.28241065,-0.47012508,-0.47012508
2463109296,1,1.1215154,3.2912872,13.952751,-0.28241065,-0.47012508,-0.47012508
2463109291,1,1.1215154,3.2912872,13.952751,-0.25064567,-0.38765833,-0.38765833
2463109301,1,1.1215154,3.2912872,13.952751,-0.17489846,-0.38949093,-0.38949093
2463109306,1,1.5021771,3.2984698,13.684612,-0.17489846,-0.38949093,-0.38949093
2463109311,1,1.5021771,3.2984698,13.684612,-0.10159469,-0.46951422,-0.46951422
2463109316,1,1.2843142,3.1691883,13.447596,-0.10159469,-0.46951422,-0.46951422
2463109320,1,1.2843142,3.1691883,13.447596,-0.022182267,-0.57213944,-0.57213944
2463109325,1,0.9371697,2.81965,13.552936,-0.022182267,-0.57213944,-0.57213944
2463109330,1,0.9371697,2.81965,13.552936,0.075556085,-0.6637692,-0.6637692
2463109335,1,0.64508975,2.213943,14.290319,0.075556085,-0.6637692,-0.6637692
2463109340,1,0.64508975,2.213943,14.290319,0.22521794,-0.70347536,-0.70347536
2463109344,1,0.4200445,1.5052898,15.283869,0.22521794,-0.70347536,-0.70347536
2463109349,1,0.4200445,1.5052898,15.283869,0.46040085,-0.6680452,-0.6680452
2463109354,1,0.6067842,0.9474647,15.532856,0.46040085,-0.6680452,-0.6680452
2463109359,1,0.6067842,0.9474647,15.532856,0.7413987,-0.5941306,-0.5941306
2463109364,1,1.0353278,0.7559368,14.747591,0.7413987,-0.5941306,-0.5941306
2463109368,1,1.0353278,0.7559368,14.747591,0.9674186,-0.54403967,-0.54403967
2463109373,1,1.404019,0.9474647,12.995111,0.9674186,-0.54403967,-0.54403967
2463109378,1,1.404019,0.9474647,12.995111,1.0498853,-0.5330441,-0.5330441
2463109383,1,1.6577935,1.1677217,10.718323,1.0498853,-0.5330441,-0.5330441
2463109388,1,1.6577935,1.1677217,10.718323,0.92954504,-0.5532026,-0.5532026
2463109392,1,1.8565037,1.2634858,8.726433,0.92954504,-0.5532026,-0.5532026
2463109397,1,1.8565037,1.2634858,8.726433,0.5984563,-0.5990175,-0.5990175
2463109402,1,1.7511634,1.2036333,7.5269895,0.5984563,-0.5990175,-0.5990175
2463109407,1,1.7511634,1.2036333,7.5269895,0.12442526,-0.6405563,-0.6405563
2463109412,1,1.3321961,0.9714057,7.275609,0.12442526,-0.6405563,-0.6405563
2463109421,1,0.91322887,0.4997682,8.039327,0.12442526,-0.6405563,-0.6405563
2463109417,1,0.91322887,0.4997682,8.039327,-0.38075987,-0.63933456,-0.63933456
2463109426,1,0.91322887,0.4997682,8.039327,-0.7943152,-0.58741105,-0.58741105
2463109431,1,0.58523726,-0.031721704,9.480574,-0.7943152,-0.58741105,-0.58741105
2463109441,1,0.3482215,-0.28789026,10.818875,-0.7943152,-0.58741105,-0.58741105
2463109436,1,0.3482215,-0.28789026,10.818875,-1.0386611,-0.4970031,-0.4970031
2463109445,1,0.3482215,-0.28789026,10.818875,-1.1137975,-0.38582575,-0.38582575
2463109450,1,0.16148183,-0.39323065,11.637657,-1.1137975,-0.38582575,-0.38582575
2463109455,1,0.16148183,-0.39323065,11.637657,-1.0380503,-0.24899206,-0.24899206
2463109460,1,0.04895918,-0.21846141,12.013531,-1.0380503,-0.24899206,-0.24899206
2463109469,1,0.09923527,0.23641734,12.070989,-1.0380503,-0.24899206,-0.24899206
2463109465,1,0.09923527,0.23641734,12.070989,-0.84684956,-0.091999814,-0.091999814
2463109474,1,0.09923527,0.23641734,12.070989,-0.5768474,0.057662047,0.057662047
2463109479,1,0.4128622,0.9091591,11.721451,-0.5768474,0.057662047,0.057662047
2463109489,1,0.8485881,1.581901,10.981674,-0.5768474,0.057662047,0.057662047
2463109484,1,0.8485881,1.581901,10.981674,-0.25919777,0.16639596,0.16639596
2463109494,1,0.8485881,1.581901,10.981674,0.059673607,0.21954119,0.21954119
2463109498,1,1.2723436,2.2259135,9.877995,0.059673607,0.21954119,0.21954119
2463109503,1,1.2723436,2.2259135,9.877995,0.32906494,0.2213738,0.2213738
2463109508,1,1.5883646,2.771768,8.633063,0.32906494,0.2213738,0.2213738
2463109518,1,1.7080696,3.2050998,7.4001026,0.32906494,0.2213738,0.2213738
2463109513,1,1.7080696,3.2050998,7.4001026,0.5178222,0.17433721,0.17433721
2463109522,1,1.7080696,3.2050998,7.4001026,0.6283887,0.09492479,0.09492479
2463109527,1,1.5309062,3.5618205,6.303605,0.6283887,0.09492479,0.09492479
2463109532,1,1.5309062,3.5618205,6.303605,0.67114925,-0.0015918307,-0.0015918307
2463109537,1,1.1502446,3.7126489,5.503976,0.67114925,-0.0015918307,-0.0015918307
2463109542,1,1.1502446,3.7126489,5.503976,0.6803122,-0.09688673,-0.09688673
2463109546,1,0.70254815,3.7054665,5.1209207,0.6803122,-0.09688673,-0.09688673
2463109551,1,0.70254815,3.7054665,5.1209207,0.694973,-0.17263396,-0.17263396
2463109556,1,0.27400446,3.6192791,4.994033,0.694973,-0.17263396,-0.17263396
2463109561,1,0.27400446,3.6192791,4.994033,0.7279597,-0.21600536,-0.21600536
2463109566,1,-0.05398707,3.5833676,4.9365745,0.7279597,-0.21600536,-0.21600536
2463109571,1,-0.05398707,3.5833676,4.9365745,0.7737745,-0.22761178,-0.22761178
2463109575,1,-0.15932742,3.7006783,4.824052,0.7737745,-0.22761178,-0.22761178
2463109585,1,-0.10426315,3.9783938,4.7115297,0.7737745,-0.22761178,-0.22761178
2463109580,1,-0.10426315,3.9783938,4.7115297,0.8098155,-0.22516832,-0.22516832
2463109590,1,-0.10426315,3.9783938,4.7115297,0.80065256,-0.23982908,-0.23982908
2463109595,1,0.075294256,4.3159614,4.6588597,0.80065256,-0.23982908,-0.23982908
2463109604,1,0.22612247,4.6487412,4.6612535,0.80065256,-0.23982908,-0.23982908
2463109599,1,0.22612247,4.6487412,4.6612535,0.7285705,-0.28320047,-0.28320047
2463109609,1,0.22612247,4.6487412,4.6612535,0.59173685,-0.35650423,-0.35650423
2463109614,1,0.26442808,4.885757,4.725894,0.59173685,-0.35650423,-0.35650423
2463109619,1,0.26442808,4.885757,4.725894,0.40175784,-0.45546433,-0.45546433
2463109623,1,0.12796444,4.945609,5.111344,0.40175784,-0.45546433,-0.45546433
2463109628,1,0.12796444,4.945609,5.111344,0.19956163,-0.5574787,-0.5574787
2463109633,1,-0.17848021,4.7540812,5.982796,0.19956163,-0.5574787,-0.5574787
2463109638,1,-0.17848021,4.7540812,5.982796,0.04195853,-0.6326151,-0.6326151
2463109643,1,-0.5304127,4.4141192,7.0146527,0.04195853,-0.6326151,-0.6326151
2463109647,1,-0.5304127,4.4141192,7.0146527,-0.03256697,-0.673543,-0.673543
2463109652,1,-0.9541682,3.9999406,7.816675,-0.03256697,-0.673543,-0.673543
2463109657,1,-0.9541682,3.9999406,7.816675,-0.02523659,-0.6765973,-0.6765973
2463109662,1,-1.4856582,3.624067,8.266766,-0.02523659,-0.6765973,-0.6765973
2463109667,1,-1.4856582,3.624067,8.266766,0.041347664,-0.6313933,-0.6313933
2463109672,1,-2.1320648,3.3655045,8.364924,0.041347664,-0.6313933,-0.6313933
2463109676,1,-2.1320648,3.3655045,8.364924,0.13542083,-0.5330441,-0.5330441
2463109681,1,-2.7138307,3.1979175,8.12312,0.13542083,-0.5330441,-0.5330441
2463109686,1,-2.7138307,3.1979175,8.12312,0.21483324,-0.3833823,-0.3833823
2463109691,1,-3.108857,3.2386172,7.752035,0.21483324,-0.3833823,-0.3833823
2463109696,1,-3.108857,3.2386172,7.752035,0.24048956,-0.20500979,-0.20500979
2463109700,1,-3.278838,3.5809734,7.536566,0.24048956,-0.20500979,-0.20500979
2463109710,1,-3.6595,4.138798,7.629936,0.24048956,-0.20500979,-0.20500979
2463109705,1,-3.6595,4.138798,7.629936,0.21177891,-0.0315242,-0.0315242
2463109720,1,-3.637953,4.512277,7.7640057,0.21177891,-0.0315242,-0.0315242
2463109715,1,-3.637953,4.512277,7.7640057,0.1531359,0.15601127,0.15601127
2463109724,1,-3.637953,4.512277,7.7640057,0.08288646,0.34721193,0.34721193
2463109729,1,-2.9795759,4.658317,8.012992,0.08288646,0.34721193,0.34721193
2463109734,1,-2.9795759,4.658317,8.012992,0.013247889,0.49870637,0.49870637
2463109739,1,-2.060242,4.7588696,8.374501,0.013247889,0.49870637,0.49870637
2463109744,1,-2.060242,4.7588696,8.374501,-0.049060315,0.58606005,0.58606005
2463109749,1,-0.87516296,4.7445054,8.709674,-0.049060315,0.58606005,0.58606005
2463109753,1,-0.87516296,4.7445054,8.709674,-0.10953593,0.6098838,0.6098838
2463109758,1,0.26442808,4.5338244,9.296229,-0.10953593,0.6098838,0.6098838
2463109763,1,0.26442808,4.5338244,9.296229,-0.16940068,0.5793405,0.5793405
2463109768,1,0.846194,4.3207498,10.526795,-0.16940068,0.5793405,0.5793405
2463109773,1,0.846194,4.3207498,10.526795,-0.20544168,0.5402452,0.5402452
2463109777,1,0.9802636,4.3159614,12.418133,-0.20544168,0.5402452,0.5402452
2463109782,1,0.9802636,4.3159614,12.418133,-0.17489846,0.53902346,0.53902346
2463109787,1,1.2986788,4.1699214,13.677429,-0.17489846,0.53902346,0.53902346
2463109792,1,1.2986788,4.1699214,13.677429,-0.08387961,0.5659015,0.5659015
2463109797,1,1.7391928,4.105281,13.548148,-0.08387961,0.5659015,0.5659015
2463109806,1,2.079155,4.2944145,12.288852,-0.08387961,0.5659015,0.5659015
2463109801,1,2.079155,4.2944145,12.288852,-0.027680049,0.5805623,0.5805623
2463109811,1,2.079155,4.2944145,12.288852,-0.09059912,0.5494082,0.5494082
2463109816,1,2.1868892,4.569736,11.395853,-0.09059912,0.5494082,0.5494082
2463109826,1,2.107884,4.5793123,11.5945635,-0.09059912,0.5494082,0.5494082
2463109821,1,2.107884,4.5793123,11.5945635,-0.25492173,0.4583893,0.4583893
2463109830,1,2.107884,4.5793123,11.5945635,-0.4168009,0.3093383,0.3093383
2463109835,1,1.6506113,4.2034388,13.102846,-0.4168009,0.3093383,0.3093383
2463109840,1,1.6506113,4.2034388,13.102846,-0.44734412,0.13402013,0.13402013
2463109845,1,0.774371,3.4469037,14.802656,-0.44734412,0.13402013,0.13402013
2463109850,1,0.774371,3.4469037,14.802656,-0.2903519,0.010625463,0.010625463
2463109854,1,-0.1904507,2.6664276,15.405969,-0.2903519,0.010625463,0.010625463
2463109859,1,-0.1904507,2.6664276,15.405969,-0.0038563253,-0.027248148,-0.027248148
2463109864,1,-0.93262136,2.233096,14.4842415,-0.0038563253,-0.027248148,-0.027248148
2463109869,1,-0.93262136,2.233096,14.4842415,0.27347624,-0.013809126,-0.013809126
2463109874,1,-1.3683473,2.2546425,12.341522,0.27347624,-0.013809126,-0.013809126
2463109878,1,-1.3683473,2.2546425,12.341522,0.40175784,0.003295087,0.003295087
2463109883,1,-1.4473525,2.4701116,10.184439,0.40175784,0.003295087,0.003295087
2463109888,1,-1.4473525,2.4701116,10.184439,0.33456272,-0.0028135602,-0.0028135602
2463109893,1,-1.1863958,2.6927629,8.738404,0.33456272,-0.0028135602,-0.0028135602
2463109902,1,-0.8392514,2.649669,8.338589,0.33456272,-0.0028135602,-0.0028135602
2463109898,1,-0.8392514,2.649669,8.338589,0.09999067,-0.052293602,-0.052293602
2463109907,1,-0.8392514,2.649669,8.338589,-0.22926542,-0.1390364,-0.1390364
2463109912,1,-0.73630524,2.3384361,9.109489,-0.22926542,-0.1390364,-0.1390364
2463109917,1,-0.73630524,2.3384361,9.109489,-0.5615758,-0.21967053,-0.21967053
2463109922,1,-0.90628624,1.8069462,10.63453,-0.5615758,-0.21967053,-0.21967053
2463109927,1,-0.90628624,1.8069462,10.63453,-0.8108086,-0.24349426,-0.24349426
2463109931,1,-1.0834496,1.3712202,12.109295,-0.8108086,-0.24349426,-0.24349426
2463109936,1,-1.0834496,1.3712202,12.109295,-0.9421445,-0.21417275,-0.21417275
2463109941,1,-1.2701893,1.1150516,13.241703,-0.9421445,-0.21417275,-0.21417275
2463109951,1,-1.507205,0.9833762,13.921627,-0.9421445,-0.21417275,-0.21417275
2463109946,1,-1.507205,0.9833762,13.921627,-0.95985955,-0.1494211,-0.1494211
2463109955,1,-1.507205,0.9833762,13.921627,-0.8877775,-0.054126196,-0.054126196
2463109960,1,-1.799285,0.8804299,13.945568,-0.8877775,-0.054126196,-0.054126196
2463109965,1,-1.799285,0.8804299,13.945568,-0.7478895,0.06987934,0.06987934
2463109970,1,-2.2182524,0.9019768,13.327891,-0.7478895,0.06987934,0.06987934
2463109975,1,-2.2182524,0.9019768,13.327891,-0.5615758,0.22198465,0.22198465
2463109979,1,-2.5079384,1.0863224,12.195482,-0.5615758,0.22198465,0.22198465
2463109984,1,-2.5079384,1.0863224,12.195482,-0.35815787,0.38142034,0.38142034
2463109989,1,-2.476815,1.342491,10.854787,-0.35815787,0.38142034,0.38142034
2463109994,1,-2.476815,1.342491,10.854787,-0.16756807,0.5121454,0.5121454
2463109999,1,-2.306834,1.5986595,9.588309,-0.16756807,0.5121454,0.5121454
2463110004,1,-2.306834,1.5986595,9.588309,0.0016414572,0.613549,0.613549
2463110008,1,-2.1177,1.7877934,8.422382,0.0016414572,0.613549,0.613549
2463110013,1,-2.1177,1.7877934,8.422382,0.13603169,0.70212436,0.70212436
2463110018,1,-1.7849206,1.9194688,7.531778,0.13603169,0.70212436,0.70212436
2463110028,1,-1.2941303,2.072691,7.0409875,0.13603169,0.70212436,0.70212436
2463110023,1,-1.2941303,2.072691,7.0409875,0.23132658,0.78336936,0.78336936
2463110037,1,-0.74827564,2.290554,6.9164944,0.23132658,0.78336936,0.78336936
2463110032,1,-0.74827564,2.290554,6.9164944,0.29607823,0.8530079,0.8530079
2463110047,1,-0.1904507,2.5275698,6.9452233,0.29607823,0.8530079,0.8530079
2463110042,1,-0.1904507,2.5275698,6.9452233,0.35166693,0.9012663,0.9012663
2463110052,1,-0.1904507,2.5275698,6.9452233,0.40542305,0.92020303,0.92020303
2463110056,1,0.27639857,2.7597976,6.8997355,0.40542305,0.92020303,0.92020303
2463110061,1,0.27639857,2.7597976,6.8997355,0.45856827,0.9147053,0.9147053
2463110066,1,0.5804491,2.9752662,6.71539,0.45856827,0.9147053,0.9147053
2463110076,1,0.7336714,3.2218585,6.428098,0.45856827,0.9147053,0.9147053
2463110071,1,0.7336714,3.2218585,6.428098,0.50499403,0.88904893,0.88904893
2463110085,1,0.87252915,3.451692,6.059407,0.50499403,0.88904893,0.88904893
2463110081,1,0.87252915,3.451692,6.059407,0.5434785,0.84628844,0.84628844
2463110095,1,0.9970223,3.597732,5.5614347,0.5434785,0.84628844,0.84628844
2463110090,1,0.9970223,3.597732,5.5614347,0.5715783,0.78031504,0.78031504
2463110105,1,1.0425102,3.6863139,5.180773,0.5715783,0.78031504,0.78031504
2463110100,1,1.0425102,3.6863139,5.180773,0.58440644,0.68807447,0.68807447
2463110114,1,0.9491402,3.7557425,5.0323386,0.58440644,0.68807447,0.68807447
2463110109,1,0.9491402,3.7557425,5.0323386,0.5813521,0.57445365,0.57445365
2463110119,1,0.9491402,3.7557425,5.0323386,0.5764652,0.45289153,0.45289153
2463110124,1,0.8629527,3.770107,5.1017675,0.5764652,0.45289153,0.45289153
2463110129,1,0.8629527,3.770107,5.1017675,0.5789087,0.3349946,0.3349946
2463110133,1,0.7217009,3.7318015,5.355542,0.5789087,0.3349946,0.3349946
2463110143,1,0.58523726,3.6312497,5.7266273,0.5789087,0.3349946,0.3349946
2463110138,1,0.58523726,3.6312497,5.7266273,0.59173685,0.2299259,0.2299259
2463110148,1,0.58523726,3.6312497,5.7266273,0.6118954,0.13890705,0.13890705
2463110153,1,0.47989693,3.592944,6.226994,0.6118954,0.13890705,0.13890705
2463110157,1,0.47989693,3.592944,6.226994,0.6253344,0.067435876,0.067435876
2463110162,1,0.3554038,3.6312497,6.590897,0.6253344,0.067435876,0.067435876
2463110172,1,0.24288115,3.7294075,7.074505,0.6253344,0.067435876,0.067435876
2463110167,1,0.24288115,3.7294075,7.074505,0.6094519,0.01795584,0.01795584
2463110177,1,0.24288115,3.7294075,7.074505,0.55997187,-0.016252585,-0.016252585
2463110182,1,0.41046807,3.7341957,7.2588506,0.55997187,-0.016252585,-0.016252585
2463110191,1,0.51820254,3.8371418,7.4815016,0.55997187,-0.016252585,-0.016252585
2463110186,1,0.51820254,3.8371418,7.4815016,0.47567248,-0.042519767,-0.042519767
2463110196,1,0.51820254,3.8371418,7.4815016,0.36144078,-0.07428473,-0.07428473
2463110201,1,0.54214346,4.0262756,7.4503784,0.36144078,-0.07428473,-0.07428473
2463110210,1,0.78394747,4.157951,7.242092,0.36144078,-0.07428473,-0.07428473
2463110206,1,0.78394747,4.157951,7.242092,0.25087425,-0.08955635,-0.08955635
2463110215,1,0.78394747,4.157951,7.242092,0.12686872,-0.11215835,-0.11215835
2463110220,1,1.0879979,4.265685,7.4072847,0.12686872,-0.11215835,-0.11215835
2463110230,1,1.3752898,4.4284844,8.233249,0.12686872,-0.11215835,-0.11215835
2463110225,1,1.3752898,4.4284844,8.233249,-0.009354108,-0.17202309,-0.17202309
2463110234,1,1.3752898,4.4284844,8.233249,-0.13213792,-0.26426366,-0.26426366
2463110239,1,1.5285122,4.488336,9.418328,-0.13213792,-0.26426366,-0.26426366
2463110244,1,1.5285122,4.488336,9.418328,-0.22621109,-0.37055412,-0.37055412
2463110249,1,1.5596355,4.265685,10.603406,-0.22621109,-0.37055412,-0.37055412
2463110254,1,1.5596355,4.265685,10.603406,-0.2817998,-0.4572969,-0.4572969
2463110259,1,1.4686598,3.9472706,11.881855,-0.2817998,-0.4572969,-0.4572969
2463110263,1,1.4686598,3.9472706,11.881855,-0.2885193,-0.5012792,-0.5012792
2463110268,1,1.0784216,3.6456141,12.896953,-0.2885193,-0.5012792,-0.5012792
2463110273,1,1.0784216,3.6456141,12.896953,-0.24453703,-0.47745547,-0.47745547
2463110278,1,0.41046807,3.5283034,13.179457,-0.24453703,-0.47745547,-0.47745547
2463110287,1,-0.22157398,3.8443244,12.82513,-0.24453703,-0.47745547,-0.47745547
2463110283,1,-0.22157398,3.8443244,12.82513,-0.1810071,-0.37910622,-0.37910622
2463110292,1,-0.22157398,3.8443244,12.82513,-0.12847273,-0.2306661,-0.2306661
2463110297,1,-0.17369202,4.351873,11.774121,-0.12847273,-0.2306661,-0.2306661
2463110302,1,-0.17369202,4.351873,11.774121,-0.1309162,-0.104217105,-0.104217105
2463110307,1,0.30991593,4.7923875,10.751841,-0.1309162,-0.104217105,-0.104217105
2463110316,1,1.013781,5.275995,10.16768,-0.1309162,-0.104217105,-0.104217105
2463110311,1,1.013781,5.275995,10.16768,-0.21949157,-0.05107187,-0.05107187
2463110321,1,1.013781,5.275995,10.16768,-0.39847493,-0.101162784,-0.101162784
2463110326,1,1.8253806,5.3957,10.409484,-0.39847493,-0.101162784,-0.101162784
2463110331,1,1.8253806,5.3957,10.409484,-0.62388396,-0.2618202,-0.2618202
2463110336,1,2.2371655,4.936033,11.89622,-0.62388396,-0.2618202,-0.2618202
2463110340,1,2.2371655,4.936033,11.89622,-0.7918718,-0.4731794,-0.4731794
2463110345,1,1.9115679,3.863477,14.165825,-0.7918718,-0.4731794,-0.4731794
2463110350,1,1.9115679,3.863477,14.165825,-0.80408907,-0.6216195,-0.6216195
2463110355,1,1.3369843,2.6448808,15.865635,-0.80408907,-0.6216195,-0.6216195
2463110364,1,0.92998743,1.512472,16.749058,-0.80408907,-0.6216195,-0.6216195
2463110360,1,0.92998743,1.512472,16.749058,-0.63976645,-0.6649909,-0.6649909
2463110369,1,0.92998743,1.512472,16.749058,-0.33494502,-0.62406296,-0.62406296
2463110374,1,0.45356187,0.7583309,16.746662,-0.33494502,-0.62406296,-0.62406296
2463110379,1,0.45356187,0.7583309,16.746662,0.0303521,-0.5122747,-0.5122747
2463110384,1,0.41525623,0.23881148,15.729172,0.0303521,-0.5122747,-0.5122747
2463110388,1,0.41525623,0.23881148,15.729172,0.34067136,-0.3901018,-0.3901018
2463110393,1,0.48229107,0.25078192,14.103579,0.34067136,-0.3901018,-0.3901018
2463110398,1,0.48229107,0.25078192,14.103579,0.5111027,-0.29175258,-0.29175258
2463110403,1,0.32906875,0.78945416,12.178723,0.5111027,-0.29175258,-0.29175258
2463110408,1,0.32906875,0.78945416,12.178723,0.5147679,-0.19340336,-0.19340336
2463110412,1,0.5205966,1.2970031,10.210774,0.5147679,-0.19340336,-0.19340336
2463110417,1,0.5205966,1.2970031,10.210774,0.3644951,-0.11032575,-0.11032575
2463110422,1,1.0784216,1.6010537,8.671369,0.3644951,-0.11032575,-0.11032575
2463110427,1,1.0784216,1.6010537,8.671369,0.106099315,-0.07856079,-0.07856079
2463110432,1,1.5979409,1.8835573,7.9675035,0.106099315,-0.07856079,-0.07856079
2463110437,1,1.5979409,1.8835573,7.9675035,-0.18222883,-0.10666057,-0.10666057
2463110441,1,1.9139619,2.0391738,7.8717403,-0.18222883,-0.10666057,-0.10666057
2463110446,1,1.9139619,2.0391738,7.8717403,-0.41496828,-0.1701905,-0.1701905
2463110451,1,1.9163563,2.0846615,8.386471,-0.41496828,-0.1701905,-0.1701905
2463110456,1,1.9163563,2.0846615,8.386471,-0.5438607,-0.25815502,-0.25815502
2463110461,1,1.7320106,1.8859514,8.90599,-0.5438607,-0.25815502,-0.25815502
2463110465,1,1.7320106,1.8859514,8.90599,-0.5487476,-0.33084792,-0.33084792
2463110470,1,1.3010728,1.61063,9.236376,-0.5487476,-0.33084792,-0.33084792
2463110475,1,1.3010728,1.61063,9.236376,-0.45223105,-0.35589337,-0.35589337
2463110480,1,0.6953658,1.5268366,9.356081,-0.45223105,-0.35589337,-0.35589337
2463110485,1,0.6953658,1.5268366,9.356081,-0.28424323,-0.3222958,-0.3222958
2463110489,1,0.31470415,1.6010537,9.025695,-0.28424323,-0.3222958,-0.3222958
2463110494,1,0.31470415,1.6010537,9.025695,-0.09670777,-0.24899206,-0.24899206
2463110499,1,0.2045756,1.8213108,8.386471,-0.09670777,-0.24899206,-0.24899206
2463110504,1,0.2045756,1.8213108,8.386471,0.069447435,-0.17324482,-0.17324482
2463110509,1,0.15908772,2.2809777,7.6251473,0.069447435,-0.17324482,-0.17324482
2463110514,1,0.15908772,2.2809777,7.6251473,0.17451617,-0.11948872,-0.11948872
2463110518,1,0.31709823,2.7645857,6.784819,0.17451617,-0.11948872,-0.11948872
2463110528,1,0.58763134,3.1620061,6.059407,0.17451617,-0.11948872,-0.11948872
2463110523,1,0.58763134,3.1620061,6.059407,0.21300064,-0.09444327,-0.09444327
2463110533,1,0.58763134,3.1620061,6.059407,0.18978779,-0.09933019,-0.09933019
2463110538,1,0.8653468,3.4732387,5.6404395,0.18978779,-0.09933019,-0.09933019
2463110542,1,0.8653468,3.4732387,5.6404395,0.12259266,-0.13598207,-0.13598207
2463110547,1,0.9754753,3.719831,5.7098684,0.12259266,-0.13598207,-0.13598207
2463110552,1,0.9754753,3.719831,5.7098684,0.05906274,-0.19401422,-0.19401422
2463110557,1,0.91083467,3.8203833,6.205447,0.05906274,-0.19401422,-0.19401422
2463110562,1,0.91083467,3.8203833,6.205447,0.04562372,-0.2551007,-0.2551007
2463110566,1,0.6498779,3.7318015,6.7058134,0.04562372,-0.2551007,-0.2551007
2463110571,1,0.6498779,3.7318015,6.7058134,0.09999067,-0.29541776,-0.29541776
2463110576,1,0.3434333,3.597732,7.0266232,0.09999067,-0.29541776,-0.29541776
2463110581,1,0.3434333,3.597732,7.0266232,0.20994632,-0.30458075,-0.30458075
2463110586,1,0.11838803,3.4947858,7.170269,0.20994632,-0.30458075,-0.30458075
2463110591,1,0.11838803,3.4947858,7.170269,0.3541104,-0.28564394,-0.28564394
2463110595,1,0.060929686,3.5067563,7.1319637,0.3541104,-0.28564394,-0.28564394
2463110600,1,0.060929686,3.5067563,7.1319637,0.50621575,-0.2563224,-0.2563224
2463110605,1,0.10162935,3.6623728,6.787213,0.50621575,-0.2563224,-0.2563224
2463110610,1,0.10162935,3.6623728,6.787213,0.6277779,-0.24227254,-0.24227254
2463110615,1,0.19499919,3.9353,6.198265,0.6277779,-0.24227254,-0.24227254
2463110619,1,0.19499919,3.9353,6.198265,0.6809231,-0.2563224,-0.2563224
2463110624,1,0.1758464,4.2704735,5.5350995,0.6809231,-0.2563224,-0.2563224
2463110629,1,0.1758464,4.2704735,5.5350995,0.6491581,-0.28869826,-0.28869826
2463110634,1,0.08247656,4.5841002,4.9293923,0.6491581,-0.28869826,-0.28869826
2463110639,1,0.08247656,4.5841002,4.9293923,0.53614813,-0.32657185,-0.32657185
2463110643,1,-0.02765198,4.7875986,4.5535192,0.53614813,-0.32657185,-0.32657185
2463110648,1,-0.02765198,4.7875986,4.5535192,0.35838646,-0.3674998,-0.3674998
2463110653,1,-0.30776155,4.8354807,4.632524,0.35838646,-0.3674998,-0.3674998
2463110658,1,-0.30776155,4.8354807,4.632524,0.16413146,-0.3986539,-0.3986539
2463110663,1,-0.585477,4.713382,5.5183406,0.16413146,-0.3986539,-0.3986539
2463110668,1,-0.585477,4.713382,5.5183406,0.013858752,-0.39621043,-0.39621043
2463110672,1,-0.6812409,4.497913,6.882977,0.013858752,-0.39621043,-0.39621043
2463110677,1,-0.6812409,4.497913,6.882977,-0.05883415,-0.3693324,-0.3693324
2463110682,1,-0.6405413,4.303991,8.405624,-0.05883415,-0.3693324,-0.3693324
2463110692,1,-0.6381471,4.181892,9.748713,-0.05883415,-0.3693324,-0.3693324
2463110687,1,-0.6381471,4.181892,9.748713,-0.039897345,-0.32473928,-0.32473928
2463110696,1,-0.6381471,4.181892,9.748713,0.06272792,-0.2618202,-0.2618202
2463110701,1,-0.8129164,4.1100693,10.555524,0.06272792,-0.2618202,-0.2618202
2463110706,1,-0.8129164,4.1100693,10.555524,0.21972016,-0.16957963,-0.16957963
2463110711,1,-1.0068383,4.1938624,10.210774,0.21972016,-0.16957963,-0.16957963
2463110716,1,-1.0068383,4.1938624,10.210774,0.35777557,-0.06328917,-0.06328917
2463110720,1,-1.2294896,4.576918,8.65461,0.35777557,-0.06328917,-0.06328917
2463110725,1,-1.2294896,4.576918,8.65461,0.3834319,0.030784,0.030784
2463110730,1,-1.3898941,5.070102,6.950012,0.3834319,0.030784,0.030784
2463110735,1,-1.3898941,5.070102,6.950012,0.27836317,0.09187047,0.09187047
2463110740,1,-1.4281998,5.5393457,6.085742,0.27836317,0.09187047,0.09187047
2463110744,1,-1.4281998,5.5393457,6.085742,0.086551644,0.11508333,0.11508333
2463110749,1,-1.4952345,5.83382,6.200659,0.086551644,0.11508333,0.11508333
2463110754,1,-1.4952345,5.83382,6.200659,-0.12541841,0.099200845,0.099200845
2463110759,1,-1.3970765,5.7404504,7.323491,-0.12541841,0.099200845,0.099200845
2463110769,1,-1.0307794,5.170655,8.917961,-0.12541841,0.099200845,0.099200845
2463110764,1,-1.0307794,5.170655,8.917961,-0.28607583,0.05705118,0.05705118
2463110773,1,-1.0307794,5.170655,8.917961,-0.36670998,0.01673411,0.01673411
2463110778,1,-0.7267288,4.476366,10.24908,-0.36670998,0.01673411,0.01673411
2463110788,1,-0.6525117,3.964029,11.441341,-0.36670998,0.01673411,0.01673411
2463110783,1,-0.6525117,3.964029,11.441341,-0.3905337,0.00757114,0.00757114
2463110793,1,-0.6525117,3.964029,11.441341,-0.37587294,0.04361216,0.04361216
2463110797,1,-0.6261767,3.7772896,12.559385,-0.37587294,0.04361216,0.04361216
2463110802,1,-0.6261767,3.7772896,12.559385,-0.3318907,0.13096581,0.13096581
2463110807,1,-0.049198866,3.4923918,12.540232,-0.3318907,0.13096581,0.13096581
2463110817,1,0.56129634,3.2242525,11.994378,-0.3318907,0.13096581,0.13096581
2463110812,1,0.56129634,3.2242525,11.994378,-0.3245603,0.23175849,0.23175849
2463110821,1,0.56129634,3.2242525,11.994378,-0.42962903,0.30506226,0.30506226
2463110826,1,0.8509822,3.4085982,12.176329,-0.42962903,0.30506226,0.30506226
2463110831,1,0.8509822,3.4085982,12.176329,-0.60128194,0.34843364,0.34843364
2463110836,1,0.8797114,3.5833676,13.387743,-0.60128194,0.34843364,0.34843364
2463110841,1,0.8797114,3.5833676,13.387743,-0.72467667,0.3594292,0.3594292
2463110846,1,0.64508975,3.4828153,15.1498,-0.72467667,0.3594292,0.3594292
2463110850,1,0.64508975,3.4828153,15.1498,-0.6892465,0.3490445,0.3490445
2463110855,1,-0.015681505,3.2027059,16.421066,-0.6892465,0.3490445,0.3490445
2463110860,1,-0.015681505,3.2027059,16.421066,-0.4668918,0.35759664,0.35759664
2463110865,1,-1.045144,3.061454,16.303757,-0.4668918,0.35759664,0.35759664
2463110870,1,-1.045144,3.061454,16.303757,-0.11197939,0.41562876,0.41562876
2463110874,1,-1.7537972,3.0925772,14.400447,-0.11197939,0.41562876,0.41562876
2463110879,1,-1.7537972,3.0925772,14.400447,0.25087425,0.49076512,0.49076512
2463110884,1,-2.1392472,3.6168847,11.704692,0.25087425,0.49076512,0.49076512
2463110889,1,-2.1392472,3.6168847,11.704692,0.500718,0.52741706,0.52741706
2463110894,1,-2.2517698,4.3542666,8.702492,0.500718,0.52741706,0.52741706
2463110898,1,-2.2517698,4.3542666,8.702492,0.5538632,0.4932086,0.4932086
2463110903,1,-1.8878667,4.9384274,6.351487,0.5538632,0.4932086,0.4932086
2463110908,1,-1.8878667,4.9384274,6.351487,0.3797667,0.36248353,0.36248353
2463110913,1,-1.3061007,5.1993837,5.448912,0.3797667,0.36248353,0.36248353
2463110918,1,-1.3061007,5.1993837,5.448912,0.0199674,0.1535678,0.1535678
2463110923,1,-0.76264036,4.907304,6.6100497,0.0199674,0.1535678,0.1535678
2463110927,1,-0.76264036,4.907304,6.6100497,-0.41924435,-0.06512176,-0.06512176
2463110932,1,-0.35324943,3.906571,9.138218,-0.41924435,-0.06512176,-0.06512176
2463110937,1,-0.35324943,3.906571,9.138218,-0.8053108,-0.22639005,-0.22639005
2463110942,1,-0.28142646,2.9249904,11.850732,-0.8053108,-0.22639005,-0.22639005
2463110947,1,-0.28142646,2.9249904,11.850732,-1.0411047,-0.30030468,-0.30030468
2463110951,1,-0.34367305,2.0846615,14.153855,-1.0411047,-0.30030468,-0.30030468
2463110961,1,-0.4370429,1.4645901,15.386816,-1.0411047,-0.30030468,-0.30030468
2463110956,1,-0.4370429,1.4645901,15.386816,-1.0863086,-0.29358518,-0.29358518
2463110966,1,-0.4370429,1.4645901,15.386816,-0.9665791,-0.21905968,-0.21905968
2463110971,1,-0.54956555,1.2539095,15.492156,-0.9665791,-0.21905968,-0.21905968
2463110975,1,-0.54956555,1.2539095,15.492156,-0.7417809,-0.108493164,-0.108493164
2463110980,1,-0.80812824,1.4334668,14.57761,-0.7417809,-0.108493164,-0.108493164
2463110985,1,-0.80812824,1.4334668,14.57761,-0.48521772,0.00757114,0.00757114
2463110990,1,-0.92065084,1.7016058,12.985535,-0.48521772,0.00757114,0.00757114
2463110995,1,-0.92065084,1.7016058,12.985535,-0.25064567,0.09797911,0.09797911
2463110999,1,-0.8943157,1.9338335,11.27136,-0.25064567,0.09797911,0.09797911
2463111004,1,-0.8943157,1.9338335,11.27136,-0.0631102,0.14868088,0.14868088
2463111009,1,-1.0044442,2.1493022,9.521274,-0.0631102,0.14868088,0.14868088
2463111014,1,-1.0044442,2.1493022,9.521274,0.06028447,0.17800239,0.17800239
2463111019,1,-1.1409079,2.2283075,7.8238583,0.06028447,0.17800239,0.17800239
2463111024,1,-1.1409079,2.2283075,7.8238583,0.11770575,0.20488045,0.20488045
2463111028,1,-1.239066,2.1756372,6.5597734,0.11770575,0.20488045,0.20488045
2463111033,1,-1.239066,2.1756372,6.5597734,0.13114478,0.24092147,0.24092147
2463111038,1,-1.2510365,2.072691,5.7553563,0.13114478,0.24092147,0.24092147
2463111043,1,-1.2510365,2.072691,5.7553563,0.12870131,0.28979063,0.28979063
2463111048,1,-1.3084949,2.020021,5.448912,0.12870131,0.28979063,0.28979063
2463111057,1,-1.3779236,2.0415678,5.5853753,0.12870131,0.28979063,0.28979063
2463111052,1,-1.3779236,2.0415678,5.5853753,0.13236651,0.36065096,0.36065096
2463111062,1,-1.3779236,2.0415678,5.5853753,0.1653532,0.4498372,0.4498372
2463111067,1,-1.193578,2.046356,5.738598,0.1653532,0.4498372,0.4498372
2463111072,1,-1.193578,2.046356,5.738598,0.22827226,0.5402452,0.5402452
2463111076,1,-0.8512219,2.242672,6.150383,0.22827226,0.5402452,0.5402452
2463111081,1,-0.8512219,2.242672,6.150383,0.30646294,0.60560775,0.60560775
2463111086,1,-0.50886583,2.5586934,6.6220202,0.30646294,0.60560775,0.60560775
2463111091,1,-0.50886583,2.5586934,6.6220202,0.38954055,0.63431835,0.63431835
2463111096,1,-0.1880566,2.798103,6.660326,0.38954055,0.63431835,0.63431835
2463111105,1,0.039382786,3.037513,6.205447,0.38954055,0.63431835,0.63431835
2463111101,1,0.039382786,3.037513,6.205447,0.45490307,0.63798356,0.63798356
2463111110,1,0.039382786,3.037513,6.205447,0.4768942,0.6239337,0.6239337
2463111115,1,0.11120576,3.3152282,5.5638285,0.4768942,0.6239337,0.6239337
2463111120,1,0.11120576,3.3152282,5.5638285,0.4561248,0.5946122,0.5946122
2463111125,1,0.11359984,3.6527963,4.9078455,0.4561248,0.5946122,0.5946122
2463111129,1,0.11359984,3.6527963,4.9078455,0.40542305,0.53902346,0.53902346
2463111134,1,0.039382786,3.8610828,4.39072,0.40542305,0.53902346,0.53902346
2463111139,1,0.039382786,3.8610828,4.39072,0.3388388,0.45716757,0.45716757
2463111144,1,-0.046804786,3.9448762,4.0818815,0.3388388,0.45716757,0.45716757
2463111153,1,-0.20242119,3.9544528,4.2805915,0.3388388,0.45716757,0.45716757
2463111149,1,-0.20242119,3.9544528,4.2805915,0.2600372,0.3545423,0.3545423
2463111158,1,-0.20242119,3.9544528,4.2805915,0.18551174,0.24947357,0.24947357
2463111163,1,-0.24790907,3.8060186,5.21429,0.18551174,0.24947357,0.24947357
2463111168,1,-0.24790907,3.8060186,5.21429,0.1427512,0.16211991,0.16211991
2463111173,1,-0.14017463,3.669555,6.590897,0.1427512,0.16211991,0.16211991
2463111178,1,-0.14017463,3.669555,6.590897,0.13603169,0.093092196,0.093092196
2463111182,1,-0.025257885,3.621673,7.8525867,0.13603169,0.093092196,0.093092196
2463111187,1,-0.025257885,3.621673,7.8525867,0.15863368,0.038114376,0.038114376
2463111192,1,0.044170976,3.6049142,8.848532,0.15863368,0.038114376,0.038114376
2463111202,1,0.04895918,3.6982844,9.468604,0.15863368,0.038114376,0.038114376
2463111197,1,0.04895918,3.6982844,9.468604,0.20811373,0.010014599,0.010014599
2463111206,1,0.04895918,3.6982844,9.468604,0.27164367,0.0026842223,0.0026842223
2463111211,1,0.025018185,3.98797,9.439874,0.27164367,0.0026842223,0.0026842223
2463111216,1,0.025018185,3.98797,9.439874,0.30951726,-0.009533072,-0.009533072
2463111221,1,-0.08032216,4.2872324,8.750374,0.30951726,-0.009533072,-0.009533072
2463111226,1,-0.08032216,4.2872324,8.750374,0.28263924,-0.043130632,-0.043130632
2463111230,1,-0.14496282,4.3614492,7.9172277,0.28263924,-0.043130632,-0.043130632
2463111235,1,-0.14496282,4.3614492,7.9172277,0.18123567,-0.09138895,-0.09138895
2463111240,1,-0.11862774,4.2154093,7.53896,0.18123567,-0.09138895,-0.09138895
2463111250,1,0.04177688,3.9688175,7.907652,0.18123567,-0.09138895,-0.09138895
2463111245,1,0.04177688,3.9688175,7.907652,0.015080482,-0.14392331,-0.14392331
2463111259,1,0.1686641,3.7222252,9.195676,0.015080482,-0.14392331,-0.14392331
2463111254,1,0.1686641,3.7222252,9.195676,-0.17612018,-0.19401422,-0.19401422
2463111269,1,0.16626999,3.597732,10.876334,-0.17612018,-0.19401422,-0.19401422
2463111264,1,0.16626999,3.597732,10.876334,-0.33799934,-0.222114,-0.222114
2463111274,1,0.16626999,3.597732,10.876334,-0.41435742,-0.21050757,-0.21050757
2463111279,1,0.16148183,3.6647668,12.236182,-0.41435742,-0.21050757,-0.21050757
2463111288,1,0.10402343,3.8227773,13.433231,-0.41435742,-0.21050757,-0.21050757
2463111283,1,0.10402343,3.8227773,13.433231,-0.40152925,-0.17507741,-0.17507741
2463111293,1,0.10402343,3.8227773,13.433231,-0.3037909,-0.12987342,-0.12987342
2463111298,1,-0.10426315,4.3327203,14.271166,-0.3037909,-0.12987342,-0.12987342
2463111303,1,-0.10426315,4.3327203,14.271166,-0.1290836,-0.08894549,-0.08894549
2463111307,1,0.33146283,4.493125,13.50266,-0.1290836,-0.08894549,-0.08894549
2463111312,1,0.33146283,4.493125,13.50266,0.022410858,-0.09994105,-0.09994105
2463111317,1,0.88210547,4.222592,12.068595,0.022410858,-0.09994105,-0.09994105
2463111322,1,0.88210547,4.222592,12.068595,0.040736802,-0.17324482,-0.17324482
2463111327,1,1.1717914,4.3159614,10.830846,0.040736802,-0.17324482,-0.17324482
2463111331,1,1.1717914,4.3159614,10.830846,-0.124807544,-0.28991997,-0.28991997
2463111336,1,1.4423246,4.136404,10.328085,-0.124807544,-0.28991997,-0.28991997
2463111346,1,1.4662656,3.1644,11.525134,-0.124807544,-0.28991997,-0.28991997
2463111341,1,1.4662656,3.1644,11.525134,-0.43757027,-0.44446877,-0.44446877
2463111351,1,1.4662656,3.1644,11.525134,-0.7601068,-0.5764155,-0.5764155
2463111356,1,0.92998743,1.9051042,13.94078,-0.7601068,-0.5764155,-0.5764155
2463111365,1,0.24288115,0.86367124,16.270239,-0.7601068,-0.5764155,-0.5764155
2463111360,1,0.24288115,0.86367124,16.270239,-0.9219859,-0.59351975,-0.59351975
2463111375,1,-0.24551497,0.080800936,17.92456,-0.9219859,-0.59351975,-0.59351975
2463111370,1,-0.24551497,0.080800936,17.92456,-0.8327997,-0.4902836,-0.4902836
2463111380,1,-0.24551497,0.080800936,17.92456,-0.50965226,-0.30030468,-0.30030468
2463111384,1,-0.5591419,-0.18733813,18.400988,-0.50965226,-0.30030468,-0.30030468
2463111389,1,-0.5591419,-0.18733813,18.400988,-0.053336367,-0.073673874,-0.073673874
2463111394,1,-0.6573,0.13586521,17.199148,-0.053336367,-0.073673874,-0.073673874
2463111404,1,-0.3700081,0.91634136,14.381294,-0.053336367,-0.073673874,-0.073673874
2463111399,1,-0.3700081,0.91634136,14.381294,0.3730472,0.13402013,0.13402013
2463111408,1,-0.3700081,0.91634136,14.381294,0.60639757,0.26841038,0.26841038
2463111413,1,0.35061565,1.6680884,11.731027,0.60639757,0.26841038,0.26841038
2463111423,1,1.0449042,2.2019725,9.798989,0.60639757,0.26841038,0.26841038
2463111418,1,1.0449042,2.2019725,9.798989,0.6235018,0.30445138,0.30445138
2463111428,1,1.0449042,2.2019725,9.798989,0.47628334,0.26352346,0.26352346
2463111433,1,1.5931529,2.458141,8.530117,0.47628334,0.26352346,0.26352346
2463111442,1,1.9474795,2.5155993,7.9196224,0.47628334,0.26352346,0.26352346
2463111437,1,1.9474795,2.5155993,7.9196224,0.23254831,0.1761698,0.1761698
2463111447,1,1.9474795,2.5155993,7.9196224,-0.024625726,0.07293366,0.07293366
2463111452,1,2.1198545,2.436594,7.874134,-0.024625726,0.07293366,0.07293366
2463111461,1,2.1653426,2.2785835,8.202125,-0.024625726,0.07293366,0.07293366
2463111457,1,2.1653426,2.2785835,8.202125,-0.21888071,-0.035800256,-0.035800256
2463111466,1,2.1653426,2.2785835,8.202125,-0.31722993,-0.1457559,-0.1457559
2463111471,1,2.0360613,2.1325436,8.589969,-0.31722993,-0.1457559,-0.1457559
2463111476,1,2.0360613,2.1325436,8.589969,-0.3245603,-0.23738562,-0.23738562
2463111481,1,1.8924153,2.0224152,8.927537,-0.3245603,-0.23738562,-0.23738562
2463111485,1,1.8924153,2.0224152,8.927537,-0.2659173,-0.3021373,-0.3021373
2463111490,1,1.8445332,2.0846615,9.219617,-0.2659173,-0.3021373,-0.3021373
2463111495,1,1.8445332,2.0846615,9.219617,-0.16573548,-0.348563,-0.348563
2463111500,1,1.6984932,2.2498546,9.293834,-0.16573548,-0.348563,-0.348563
2463111505,1,1.6984932,2.2498546,9.293834,-0.051503774,-0.38399315,-0.38399315
2463111509,1,1.4207777,2.4150474,8.920355,-0.051503774,-0.38399315,-0.38399315
2463111514,1,1.4207777,2.4150474,8.920355,0.04867804,-0.40537342,-0.40537342
2463111519,1,1.0592688,2.4916584,8.096785,0.04867804,-0.40537342,-0.40537342
2463111524,1,1.0592688,2.4916584,8.096785,0.11770575,-0.40415168,-0.40415168
2463111529,1,0.67142487,2.5826342,7.1582985,0.11770575,-0.40415168,-0.40415168
2463111538,1,0.32428053,2.6807923,6.4783745,0.11770575,-0.40415168,-0.40415168
2463111534,1,0.32428053,2.6807923,6.4783745,0.15435763,-0.38216054,-0.38216054
2463111548,1,0.053747386,2.8555615,5.9540663,0.15435763,-0.38216054,-0.38216054
2463111543,1,0.053747386,2.8555615,5.9540663,0.17818135,-0.34428695,-0.34428695
2463111558,1,-0.12820414,3.0470893,5.5805874,0.17818135,-0.34428695,-0.34428695
2463111553,1,-0.12820414,3.0470893,5.5805874,0.20628113,-0.3021373,-0.3021373
2463111562,1,-0.12820414,3.0470893,5.5805874,0.24171129,-0.2654854,-0.2654854
2463111567,1,-0.23115039,3.255376,5.326813,0.24171129,-0.2654854,-0.2654854
2463111572,1,-0.23115039,3.255376,5.326813,0.28569356,-0.23738562,-0.23738562
2463111577,1,-0.1832684,3.3391693,5.2669606,0.28569356,-0.23738562,-0.23738562
2463111582,1,-0.1832684,3.3391693,5.2669606,0.3400605,-0.21356189,-0.21356189
2463111586,1,-0.013287395,3.3631103,5.4130006,0.3400605,-0.21356189,-0.21356189
2463111596,1,0.15190542,3.4588742,5.6045284,0.3400605,-0.21356189,-0.21356189
2463111591,1,0.15190542,3.4588742,5.6045284,0.40053612,-0.19462508,-0.19462508
2463111606,1,0.38892117,3.5857615,5.717051,0.40053612,-0.19462508,-0.19462508
2463111601,1,0.38892117,3.5857615,5.717051,0.45551392,-0.18485124,-0.18485124
2463111615,1,0.5636904,3.6887078,5.8343616,0.45551392,-0.18485124,-0.18485124
2463111611,1,0.5636904,3.6887078,5.8343616,0.48788977,-0.1891273,-0.1891273
2463111625,1,0.625937,3.7509544,5.963643,0.48788977,-0.1891273,-0.1891273
2463111620,1,0.625937,3.7509544,5.963643,0.4909441,-0.20806411,-0.20806411
2463111630,1,0.625937,3.7509544,5.963643,0.47139642,-0.23372042,-0.23372042
2463111635,1,0.4679264,3.817989,6.061801,0.47139642,-0.23372042,-0.23372042
2463111639,1,0.4679264,3.817989,6.061801,0.44207492,-0.24960291,-0.24960291
2463111644,1,0.060929686,3.8467183,5.8487267,0.44207492,-0.24960291,-0.24960291
2463111649,1,0.060929686,3.8467183,5.8487267,0.4042013,-0.24777031,-0.24777031
2463111654,1,-0.3867668,3.865871,5.427365,0.4042013,-0.24777031,-0.24777031
2463111659,1,-0.3867668,3.865871,5.427365,0.35227782,-0.22455746,-0.22455746
2463111663,1,-0.7267288,3.9209354,5.132891,0.35227782,-0.22455746,-0.22455746
2463111668,1,-0.7267288,3.9209354,5.132891,0.29058045,-0.18607298,-0.18607298
2463111673,1,-0.8536161,3.9736054,5.1711965,0.29058045,-0.18607298,-0.18607298
2463111678,1,-0.8536161,3.9736054,5.1711965,0.2258288,-0.14086899,-0.14086899
2463111683,1,-0.83206916,4.088522,5.5638285,0.2258288,-0.14086899,-0.14086899
2463111688,1,-0.83206916,4.088522,5.5638285,0.1653532,-0.095054135,-0.095054135
2463111692,1,-0.7961577,4.2441382,6.253329,0.1653532,-0.095054135,-0.095054135
2463111697,1,-0.7961577,4.2441382,6.253329,0.12137094,-0.052293602,-0.052293602
2463111702,1,-0.6979996,4.3949666,6.959588,0.12137094,-0.052293602,-0.052293602
2463111707,1,-0.6979996,4.3949666,6.959588,0.09937981,-0.018696044,-0.018696044
2463111712,1,-0.73630524,4.5984654,7.565295,0.09937981,-0.018696044,-0.018696044
2463111716,1,-0.73630524,4.5984654,7.565295,0.09632548,-0.000980966,-0.000980966
2463111721,1,-0.77939904,4.8067517,8.075238,0.09632548,-0.000980966,-0.000980966
2463111726,1,-0.77939904,4.8067517,8.075238,0.09754721,0.0014624929,0.0014624929
2463111731,1,-0.8847393,4.955186,8.374501,0.09754721,0.0014624929,0.0014624929
2463111736,1,-0.8847393,4.955186,8.374501,0.07433435,-0.0052570193,-0.0052570193
2463111740,1,-0.9374095,5.0294027,8.537299,0.07433435,-0.0052570193,-0.0052570193
2463111750,1,-1.0140207,5.0748906,8.920355,0.07433435,-0.0052570193,-0.0052570193
2463111745,1,-1.0140207,5.0748906,8.920355,0.010193564,-0.01564172,-0.01564172
2463111760,1,-1.1959722,5.11559,9.499727,0.010193564,-0.01564172,-0.01564172
2463111755,1,-1.1959722,5.11559,9.499727,-0.08143615,-0.021750366,-0.021750366
2463111764,1,-1.1959722,5.11559,9.499727,-0.17428759,-0.024804689,-0.024804689
2463111769,1,-1.2223073,4.9982796,10.007276,-0.17428759,-0.024804689,-0.024804689
2463111774,1,-1.2223073,4.9982796,10.007276,-0.2518674,-0.030302472,-0.030302472
2463111779,1,-1.0834496,4.605647,10.474125,-0.2518674,-0.030302472,-0.030302472
2463111784,1,-1.0834496,4.605647,10.474125,-0.30256918,-0.036411118,-0.036411118
2463111789,1,-1.1145728,4.1004925,11.347971,-0.30256918,-0.036411118,-0.036411118
2463111793,1,-1.1145728,4.1004925,11.347971,-0.30623436,-0.02602642,-0.02602642
2463111798,1,-1.8112556,3.9089649,12.889771,-0.30623436,-0.02602642,-0.02602642
2463111808,1,-2.6252494,4.1028867,13.98148,-0.30623436,-0.02602642,-0.02602642
2463111803,1,-2.6252494,4.1028867,13.98148,-0.23231974,0.043001294,0.043001294
2463111817,1,-2.4145684,3.8419302,13.327891,-0.23231974,0.043001294,0.043001294
2463111813,1,-2.4145684,3.8419302,13.327891,-0.07654923,0.19877179,0.19877179
2463111827,1,-1.847167,3.7222252,12.118871,-0.07654923,0.19877179,0.19877179
2463111822,1,-1.847167,3.7222252,12.118871,0.07128003,0.36737046,0.36737046
2463111832,1,-1.847167,3.7222252,12.118871,0.12320353,0.4864891,0.4864891
2463111837,1,-1.265401,4.136404,11.285725,0.12320353,0.4864891,0.4864891
2463111841,1,-1.265401,4.136404,11.285725,0.054175824,0.5280279,0.5280279
2463111846,1,-0.683635,4.42609,11.704692,0.054175824,0.5280279,0.5280279
2463111856,1,-0.54956555,4.397361,13.402108,0.054175824,0.5280279,0.5280279
2463111851,1,-0.54956555,4.397361,13.402108,-0.06616453,0.48038045,0.48038045
2463111866,1,-0.8847393,4.1483746,14.685345,-0.06616453,0.48038045,0.48038045
2463111861,1,-0.8847393,4.1483746,14.685345,-0.11930977,0.38875073,0.38875073
2463111875,1,-1.337224,3.7341957,14.412418,-0.11930977,0.38875073,0.38875073
2463111870,1,-1.337224,3.7341957,14.412418,-0.06982972,0.30628398,0.30628398
2463111880,1,-1.337224,3.7341957,14.412418,0.024243452,0.23236935,0.23236935
2463111885,1,-2.014754,3.3439577,13.083693,0.024243452,0.23236935,0.23236935
2463111894,1,-2.6851015,3.1763706,11.577805,0.024243452,0.23236935,0.23236935
2463111890,1,-2.6851015,3.1763706,11.577805,0.09021684,0.16883942,0.16883942
2463111904,1,-2.9412704,3.0494835,10.39512,0.09021684,0.16883942,0.16883942
2463111899,1,-2.9412704,3.0494835,10.39512,0.07494522,0.11935938,0.11935938
2463111909,1,-2.9412704,3.0494835,10.39512,-0.0527255,0.07782058,0.07782058
2463111914,1,-2.716225,2.750221,10.074311,-0.0527255,0.07782058,0.07782058
2463111923,1,-2.086577,2.120573,10.498066,-0.0527255,0.07782058,0.07782058
2463111918,1,-2.086577,2.120573,10.498066,-0.2799672,0.02956227,0.02956227
2463111928,1,-2.086577,2.120573,10.498066,-0.55302364,-0.015030853,-0.015030853
2463111933,1,-1.6149396,1.4741664,11.388671,-0.55302364,-0.015030853,-0.015030853
2463111938,1,-1.6149396,1.4741664,11.388671,-0.8077542,-0.029691607,-0.029691607
2463111943,1,-1.5694517,1.0671697,12.607267,-0.8077542,-0.029691607,-0.029691607
2463111947,1,-1.5694517,1.0671697,12.607267,-0.9824616,0.006960275,0.006960275
2463111952,1,-1.6245159,0.87564176,13.777981,-0.9824616,0.006960275,0.006960275
2463111957,1,-1.6245159,0.87564176,13.777981,-1.0282764,0.09981171,0.09981171
2463111962,1,-1.6556392,0.81100106,14.572822,-1.0282764,0.09981171,0.09981171
2463111971,1,-1.7322503,1.0384405,14.469876,-1.0282764,0.09981171,0.09981171
2463111967,1,-1.7322503,1.0384405,14.469876,-0.9207642,0.23420195,0.23420195
2463111976,1,-1.7322503,1.0384405,14.469876,-0.695966,0.3820312,0.3820312
2463111981,1,-1.6987329,1.5435953,13.253674,-0.695966,0.3820312,0.3820312
2463111986,1,-1.6987329,1.5435953,13.253674,-0.42779645,0.50542593,0.50542593
2463111991,1,-1.4976287,2.08945,11.4581,-0.42779645,0.50542593,0.50542593
2463111995,1,-1.4976287,2.08945,11.4581,-0.17306586,0.5805623,0.5805623
2463112000,1,-1.1816076,2.5012348,9.516486,-0.17306586,0.5805623,0.5805623
2463112005,1,-1.1816076,2.5012348,9.516486,0.035849884,0.61965764,0.61965764
2463112010,1,-0.97810924,2.8771083,7.680212,0.035849884,0.61965764,0.61965764
2463112015,1,-0.97810924,2.8771083,7.680212,0.17085098,0.63309664,0.63309664
2463112019,1,-0.8584043,3.1907353,6.179112,0.17085098,0.63309664,0.63309664
2463112024,1,-0.8584043,3.1907353,6.179112,0.22888313,0.6233228,0.6233228
2463112029,1,-0.7674285,3.3942335,5.1233144,0.22888313,0.6233228,0.6233228
2463112034,1,-0.7674285,3.3942335,5.1233144,0.21666583,0.590947,0.590947
2463112039,1,-0.6860292,3.449298,4.656465,0.21666583,0.590947,0.590947
2463112044,1,-0.6860292,3.449298,4.656465,0.16290973,0.5475756,0.5475756
2463112048,1,-0.8560101,3.3726869,4.7857466,0.16290973,0.5475756,0.5475756
2463112053,1,-0.8560101,3.3726869,4.7857466,0.1115971,0.5261953,0.5261953
2463112058,1,-0.84643376,3.015966,5.262172,0.1115971,0.5261953,0.5261953
2463112063,1,-0.84643376,3.015966,5.262172,0.09143856,0.54268867,0.54268867
2463112068,1,-0.70518196,2.6807923,5.884638,0.09143856,0.54268867,0.54268867
2463112072,1,-0.70518196,2.6807923,5.884638,0.103044994,0.5836166,0.5836166
2463112077,1,-0.5878711,2.6975508,6.4520392,0.103044994,0.5836166,0.5836166
2463112082,1,-0.5878711,2.6975508,6.4520392,0.13542083,0.6337075,0.6337075
2463112087,1,-0.3556435,2.9225962,6.636385,0.13542083,0.6337075,0.6337075
2463112092,1,-0.3556435,2.9225962,6.636385,0.17085098,0.66608334,0.66608334
2463112096,1,0.017835885,3.1715825,6.4807687,0.17085098,0.66608334,0.66608334
2463112106,1,0.31949237,3.3942335,6.301211,0.17085098,0.66608334,0.66608334
2463112101,1,0.31949237,3.3942335,6.301211,0.18551174,0.65386605,0.65386605
2463112111,1,0.31949237,3.3942335,6.301211,0.19162038,0.59827733,0.59827733
2463112116,1,0.4487737,3.5426679,6.0905304,0.19162038,0.59827733,0.59827733
2463112121,1,0.4487737,3.5426679,6.0905304,0.20261595,0.5164215,0.5164215
2463112125,1,0.4224386,3.5785792,5.8271794,0.20261595,0.5164215,0.5164215
2463112130,1,0.4224386,3.5785792,5.8271794,0.22460708,0.42112654,0.42112654
2463112135,1,0.29555136,3.4899976,5.6308637,0.22460708,0.42112654,0.42112654
2463112145,1,0.22133428,3.4109924,5.573405,0.22460708,0.42112654,0.42112654
2463112140,1,0.22133428,3.4109924,5.573405,0.25820464,0.3337729,0.3337729
2463112149,1,0.22133428,3.4109924,5.573405,0.28691527,0.26413432,0.26413432
2463112154,1,0.23569888,3.401416,5.645228,0.28691527,0.26413432,0.26413432
2463112164,1,0.26203397,3.5594265,5.9468846,0.28691527,0.26413432,0.26413432
2463112159,1,0.26203397,3.5594265,5.9468846,0.28508267,0.20793477,0.20793477
2463112169,1,0.26203397,3.5594265,5.9468846,0.242933,0.15662213,0.15662213
2463112173,1,0.24527529,3.6767373,6.349093,0.242933,0.15662213,0.15662213
2463112178,1,0.24527529,3.6767373,6.349093,0.17634876,0.108363815,0.108363815
2463112183,1,0.26442808,3.592944,6.71539,0.17634876,0.108363815,0.108363815
2463112188,1,0.26442808,3.592944,6.71539,0.09937981,0.06804674,0.06804674
2463112193,1,0.08965886,3.4876037,7.3091264,0.09937981,0.06804674,0.06804674
2463112198,1,0.08965886,3.4876037,7.3091264,0.043180257,0.0411687,0.0411687
2463112202,1,-0.23593858,3.5067563,8.032145,0.043180257,0.0411687,0.0411687
2463112212,1,-0.5998416,3.6360376,8.530117,0.043180257,0.0411687,0.0411687
2463112207,1,-0.5998416,3.6360376,8.530117,0.03157383,0.034449186,0.034449186
2463112217,1,-0.5998416,3.6360376,8.530117,0.06211706,0.048499078,0.048499078
2463112222,1,-0.80573404,3.8586888,8.611516,0.06211706,0.048499078,0.048499078
2463112226,1,-0.80573404,3.8586888,8.611516,0.11770575,0.064381555,0.064381555
2463112231,1,-0.7291229,4.08134,8.187761,0.11770575,0.064381555,0.064381555
2463112236,1,-0.7291229,4.08134,8.187761,0.15985541,0.055829454,0.055829454
2463112241,1,-0.3987373,4.260897,7.809493,0.15985541,0.055829454,0.055829454
2463112246,1,-0.3987373,4.260897,7.809493,0.1531359,0.0039059517,0.0039059517
2463112250,1,-0.08271626,4.375814,8.171002,0.1531359,0.0039059517,0.0039059517
2463112260,1,0.11120576,4.4021487,9.19807,0.1531359,0.0039059517,0.0039059517
2463112255,1,0.11120576,4.4021487,9.19807,0.1012124,-0.073673874,-0.073673874
2463112265,1,0.11120576,4.4021487,9.19807,0.0071392395,-0.15186456,-0.15186456
2463112270,1,0.18063459,4.2680793,10.265839,0.0071392395,-0.15186456,-0.15186456
2463112274,1,0.18063459,4.2680793,10.265839,-0.11747717,-0.20928584,-0.20928584
2463112279,1,0.11120576,4.007123,11.496405,-0.11747717,-0.20928584,-0.20928584
2463112284,1,0.11120576,4.007123,11.496405,-0.23842838,-0.23005524,-0.23005524
2463112289,1,-0.14496282,3.7006783,12.624026,-0.23842838,-0.23005524,-0.23005524
2463112294,1,-0.14496282,3.7006783,12.624026,-0.312343,-0.19523595,-0.19523595
2463112299,1,-0.64772356,3.4157805,13.382955,-0.312343,-0.19523595,-0.19523595
2463112308,1,-1.4617171,3.5115445,13.924021,-0.312343,-0.19523595,-0.19523595
2463112303,1,-1.4617171,3.5115445,13.924021,-0.31356475,-0.095665,-0.095665
2463112313,1,-1.4617171,3.5115445,13.924021,-0.22621109,0.064381555,0.064381555
2463112318,1,-1.7777381,4.038246,13.548148,-0.22621109,0.064381555,0.064381555
2463112323,1,-1.7777381,4.038246,13.548148,-0.09243172,0.2213738,0.2213738
2463112327,1,-1.0307794,4.2082267,12.00156,-0.09243172,0.2213738,0.2213738
2463112332,1,-1.0307794,4.2082267,12.00156,0.010193564,0.28184938,0.28184938
2463112337,1,-0.31973204,4.3351145,11.017586,0.010193564,0.28184938,0.28184938
2463112342,1,-0.31973204,4.3351145,11.017586,0.052954093,0.24825184,0.24825184
2463112347,1,0.336251,4.6271944,10.818875,0.052954093,0.24825184,0.24825184
2463112351,1,0.336251,4.6271944,10.818875,0.032184694,0.14196138,0.14196138
2463112356,1,1.2268558,4.497913,11.647234,0.032184694,0.14196138,0.14196138
2463112361,1,1.2268558,4.497913,11.647234,-0.021571402,-0.032135066,-0.032135066
2463112366,1,1.6841286,3.7318015,13.507448,-0.021571402,-0.032135066,-0.032135066
2463112371,1,1.6841286,3.7318015,13.507448,-0.033788696,-0.20195547,-0.20195547
2463112376,1,1.6984932,2.604181,15.188106,-0.033788696,-0.20195547,-0.20195547
2463112385,1,1.6889168,1.5268366,16.095469,-0.033788696,-0.20195547,-0.20195547
2463112380,1,1.6889168,1.5268366,16.095469,0.042569395,-0.29541776,-0.29541776
2463112395,1,1.8086216,0.6960843,16.286997,0.042569395,-0.29541776,-0.29541776
2463112390,1,1.8086216,0.6960843,16.286997,0.19772902,-0.3192415,-0.3192415
2463112400,1,1.8086216,0.6960843,16.286997,0.3901514,-0.31130025,-0.31130025
2463112404,1,1.7703161,0.155018,15.942247,0.3901514,-0.31130025,-0.31130025
2463112409,1,1.7703161,0.155018,15.942247,0.5795195,-0.27464837,-0.27464837
2463112414,1,1.552453,-0.05566269,14.967848,0.5795195,-0.27464837,-0.27464837
2463112424,1,1.4064131,-0.010174815,13.30395,0.5795195,-0.27464837,-0.27464837
2463112419,1,1.4064131,-0.010174815,13.30395,0.7249053,-0.19584681,-0.19584681
2463112428,1,1.4064131,-0.010174815,13.30395,0.7811049,-0.07733906,-0.07733906
2463112433,1,1.451901,0.3633046,11.403035,0.7811049,-0.07733906,-0.07733906
2463112438,1,1.451901,0.3633046,11.403035,0.7279597,0.051553402,0.051553402
2463112443,1,1.7439811,1.0839283,9.739137,0.7279597,0.051553402,0.051553402
2463112453,1,2.201254,1.8763751,8.503782,0.7279597,0.051553402,0.051553402
2463112448,1,2.201254,1.8763751,8.503782,0.5831847,0.13890705,0.13890705
2463112457,1,2.201254,1.8763751,8.503782,0.3870971,0.15234607,0.15234607
2463112462,1,2.6321917,2.5922105,7.507837,0.3870971,0.15234607,0.15234607
2463112472,1,2.8763897,3.1260946,6.933253,0.3870971,0.15234607,0.15234607
2463112467,1,2.8763897,3.1260946,6.933253,0.16474234,0.08820528,0.08820528
2463112481,1,2.902725,3.449298,6.930859,0.16474234,0.08820528,0.08820528
2463112477,1,2.902725,3.449298,6.930859,-0.0631102,-0.032135066,-0.032135066
2463112491,1,2.6465561,3.523515,7.419255,-0.0631102,-0.032135066,-0.032135066
2463112486,1,2.6465561,3.523515,7.419255,-0.25919777,-0.18301865,-0.18301865
2463112501,1,2.1414015,3.396628,8.101574,-0.25919777,-0.18301865,-0.18301865
2463112496,1,2.1414015,3.396628,8.101574,-0.38320333,-0.3345131,-0.3345131
2463112505,1,2.1414015,3.396628,8.101574,-0.41924435,-0.44935566,-0.44935566
2463112510,1,1.5093594,3.138065,8.712068,-0.41924435,-0.44935566,-0.44935566
2463112515,1,1.5093594,3.138065,8.712068,-0.37526208,-0.49639225,-0.49639225
2463112520,1,0.9395639,2.9561136,8.879655,-0.37526208,-0.49639225,-0.49639225
2463112525,1,0.9395639,2.9561136,8.879655,-0.2848541,-0.475012,-0.475012
2463112529,1,0.49904975,2.944143,8.589969,-0.2848541,-0.475012,-0.475012
2463112534,1,0.49904975,2.944143,8.589969,-0.17489846,-0.4108712,-0.4108712
2463112539,1,0.24527529,3.1021535,8.044115,-0.17489846,-0.4108712,-0.4108712
2463112549,1,0.13035855,3.3702927,7.464743,-0.17489846,-0.4108712,-0.4108712
2463112544,1,0.13035855,3.3702927,7.464743,-0.065553665,-0.33329138,-0.33329138
2463112554,1,0.13035855,3.3702927,7.464743,0.034628153,-0.26487452,-0.26487452
2463112558,1,0.13754082,3.6815255,6.8015776,0.034628153,-0.26487452,-0.26487452
2463112568,1,0.190211,3.9472706,6.109683,0.034628153,-0.26487452,-0.26487452
2463112563,1,0.190211,3.9472706,6.109683,0.11770575,-0.21783794,-0.21783794
2463112573,1,0.190211,3.9472706,6.109683,0.1739053,-0.19157076,-0.19157076
2463112578,1,0.26682216,4.1627393,5.424971,0.1739053,-0.19157076,-0.19157076
2463112587,1,0.39849755,4.337508,4.967698,0.1739053,-0.19157076,-0.19157076
2463112582,1,0.39849755,4.337508,4.967698,0.19895075,-0.1824078,-0.1824078
2463112597,1,0.51580846,4.4787602,4.8575697,0.19895075,-0.1824078,-0.1824078
2463112592,1,0.51580846,4.4787602,4.8575697,0.20078334,-0.18607298,-0.18607298
2463112602,1,0.51580846,4.4787602,4.8575697,0.19284211,-0.19523595,-0.19523595
2463112606,1,0.6522721,4.639165,5.0227623,0.19284211,-0.19523595,-0.19523595
2463112616,1,0.8174648,4.7588696,5.3914537,0.19284211,-0.19523595,-0.19523595
2463112611,1,0.8174648,4.7588696,5.3914537,0.18551174,-0.21356189,-0.21356189
2463112621,1,0.8174648,4.7588696,5.3914537,0.18673345,-0.25082463,-0.25082463
2463112626,1,1.0257515,4.77084,5.9923725,0.18673345,-0.25082463,-0.25082463
2463112635,1,1.1239095,4.761264,6.5549855,0.18673345,-0.25082463,-0.25082463
2463112631,1,1.1239095,4.761264,6.5549855,0.2154441,-0.3088568,-0.3088568
2463112645,1,0.9922341,4.667894,6.590897,0.2154441,-0.3088568,-0.3088568
2463112640,1,0.9922341,4.667894,6.590897,0.27286538,-0.38277143,-0.38277143
2463112650,1,0.9922341,4.667894,6.590897,0.3315084,-0.45974037,-0.45974037
2463112655,1,0.58763134,4.440455,6.0977125,0.3315084,-0.45974037,-0.45974037
2463112659,1,0.58763134,4.440455,6.0977125,0.36082992,-0.5202159,-0.5202159
2463112664,1,0.039382786,4.1316156,5.503976,0.36082992,-0.5202159,-0.5202159
2463112669,1,0.039382786,4.1316156,5.503976,0.35166693,-0.5458723,-0.5458723
2463112674,1,-0.45858976,3.8060186,5.1711965,0.35166693,-0.5458723,-0.5458723
2463112679,1,-0.45858976,3.8060186,5.1711965,0.30524123,-0.52937895,-0.52937895
2463112683,1,-0.8871335,3.6073086,5.1520433,0.30524123,-0.52937895,-0.52937895
2463112688,1,-0.8871335,3.6073086,5.1520433,0.23254831,-0.47379026,-0.47379026
2463112693,1,-1.2510365,3.540274,5.3411775,0.23254831,-0.47379026,-0.47379026
2463112698,1,-1.2510365,3.540274,5.3411775,0.14947072,-0.38399315,-0.38399315
2463112703,1,-1.5215696,3.6192791,5.8247857,0.14947072,-0.38399315,-0.38399315
2463112708,1,-1.5215696,3.6192791,5.8247857,0.07922127,-0.2722049,-0.2722049
2463112712,1,-1.6388805,3.8754475,6.4592214,0.07922127,-0.2722049,-0.2722049
2463112717,1,-1.6388805,3.8754475,6.4592214,0.040125936,-0.16224925,-0.16224925
2463112722,1,-1.6077572,4.2345624,6.978741,0.040125936,-0.16224925,-0.16224925
2463112727,1,-1.6077572,4.2345624,6.978741,0.03340642,-0.08039338,-0.08039338
2463112732,1,-1.4425644,4.5338244,7.222939,0.03340642,-0.08039338,-0.08039338
2463112736,1,-1.4425644,4.5338244,7.222939,0.035849884,-0.0315242,-0.0315242
2463112741,1,-1.0762672,4.7349286,7.2325153,0.035849884,-0.0315242,-0.0315242
2463112746,1,-1.0762672,4.7349286,7.2325153,0.016302211,-0.020528637,-0.020528637
2463112751,1,-0.59505343,4.837875,7.371373,0.016302211,-0.020528637,-0.020528637
2463112756,1,-0.59505343,4.837875,7.371373,-0.040508207,-0.048628416,-0.048628416
2463112760,1,-0.14496282,4.6942286,7.8454046,-0.040508207,-0.048628416,-0.048628416
2463112765,1,-0.14496282,4.6942286,7.8454046,-0.122974955,-0.09933019,-0.09933019
2463112770,1,0.190211,4.4332724,8.621093,-0.122974955,-0.09933019,-0.09933019
2463112775,1,0.190211,4.4332724,8.621093,-0.21704812,-0.15003195,-0.15003195
2463112780,1,0.31709823,4.119645,9.411145,-0.21704812,-0.15003195,-0.15003195
2463112784,1,0.31709823,4.119645,9.411145,-0.31478646,-0.18546212,-0.18546212
2463112789,1,0.26921624,3.7605307,10.033611,-0.31478646,-0.18546212,-0.18546212
2463112794,1,0.26921624,3.7605307,10.033611,-0.41374657,-0.19462508,-0.19462508
2463112799,1,-0.07313987,3.4684508,10.524401,-0.41374657,-0.19462508,-0.19462508
2463112804,1,-0.07313987,3.4684508,10.524401,-0.50965226,-0.16041666,-0.16041666
2463112809,1,-0.8943157,3.4421155,11.187567,-0.50965226,-0.16041666,-0.16041666
2463112813,1,-0.8943157,3.4421155,11.187567,-0.58417773,-0.053515334,-0.053515334
2463112818,1,-2.0458772,3.9975464,11.951284,-0.58417773,-0.053515334,-0.053515334
2463112823,1,-2.0458772,3.9975464,11.951284,-0.61044496,0.13585272,0.13585272
2463112828,1,-2.1536117,4.6319823,11.623293,-0.61044496,0.13585272,0.13585272
2463112833,1,-2.1536117,4.6319823,11.623293,-0.5988385,0.31544694,0.31544694
2463112837,1,-1.4281998,4.8594217,10.644106,-0.5988385,0.31544694,0.31544694
2463112842,1,-1.4281998,4.8594217,10.644106,-0.5945625,0.39485937,0.39485937
2463112847,1,-0.9948679,5.280783,9.935453,-0.5945625,0.39485937,0.39485937
2463112852,1,-0.9948679,5.280783,9.935453,-0.6336578,0.3856964,0.3856964
2463112857,1,-0.63575304,5.63511,9.980941,-0.6336578,0.3856964,0.3856964
2463112861,1,-0.63575304,5.63511,9.980941,-0.7045181,0.30139706,0.30139706
2463112866,1,-0.391555,5.3789415,11.285725,-0.7045181,0.30139706,0.30139706
2463112871,1,-0.391555,5.3789415,11.285725,-0.7240658,0.16639596,0.16639596
2463112876,1,-0.6429354,4.799569,13.406896,-0.7240658,0.16639596,0.16639596
2463112886,1,-1.1624548,4.1507688,14.778715,-0.7240658,0.16639596,0.16639596
2463112881,1,-1.1624548,4.1507688,14.778715,-0.6318252,0.047277346,0.047277346
2463112890,1,-1.1624548,4.1507688,14.778715,-0.45345277,-0.010143938,-0.010143938
2463112895,1,-1.6412746,3.4828153,14.848144,-0.45345277,-0.010143938,-0.010143938
2463112900,1,-1.6412746,3.4828153,14.848144,-0.25308913,-0.018085178,-0.018085178
2463112905,1,-2.1153061,3.0207543,14.010209,-0.25308913,-0.018085178,-0.018085178
2463112910,1,-2.1153061,3.0207543,14.010209,-0.08265788,-0.0015918307,-0.0015918307
2463112914,1,-2.5773673,2.9968133,12.456439,-0.08265788,-0.0015918307,-0.0015918307
2463112919,1,-2.5773673,2.9968133,12.456439,-0.0008020017,0.023453623,0.023453623
2463112924,1,-2.6132789,3.0758185,10.945763,-0.0008020017,0.023453623,0.023453623
2463112934,1,-2.2900753,3.0518775,10.392726,-0.0008020017,0.023453623,0.023453623
2463112929,1,-2.2900753,3.0518775,10.392726,-0.049060315,0.031394865,0.031394865
2463112938,1,-2.2900753,3.0518775,10.392726,-0.20483083,0.01795584,0.01795584
2463112943,1,-1.8830786,2.9058375,10.648894,-0.20483083,0.01795584,0.01795584
2463112953,1,-1.5024168,2.6831863,11.17799,-0.20483083,0.01795584,0.01795584
2463112948,1,-1.5024168,2.6831863,11.17799,-0.42107692,0.0014624929,0.0014624929
2463112963,1,-1.3851061,2.4270177,11.754968,-0.42107692,0.0014624929,0.0014624929
2463112958,1,-1.3851061,2.4270177,11.754968,-0.65320545,-0.0064787487,-0.0064787487
2463112967,1,-1.3851061,2.4270177,11.754968,-0.8560126,0.0039059517,0.0039059517
2463112972,1,-1.456929,2.2211254,12.051836,-0.8560126,0.0039059517,0.0039059517
2463112982,1,-1.7226739,1.9817154,11.956072,-0.8560126,0.0039059517,0.0039059517
2463112977,1,-1.7226739,1.9817154,11.956072,-1.0038419,0.028951406,0.028951406
2463112987,1,-1.7226739,1.9817154,11.956072,-1.0881412,0.0723228,0.0723228
2463112991,1,-1.9979953,1.8404635,11.482041,-1.0881412,0.0723228,0.0723228
2463112996,1,-1.9979953,1.8404635,11.482041,-1.1199062,0.13096581,0.13096581
2463113001,1,-2.261346,1.7782171,10.92661,-1.1199062,0.13096581,0.13096581
2463113011,1,-2.3618982,1.751882,10.505248,-1.1199062,0.13096581,0.13096581
2463113006,1,-2.3618982,1.751882,10.505248,-1.097915,0.19510661,0.19510661
2463113020,1,-2.2493756,1.6848471,10.198804,-1.097915,0.19510661,0.19510661
2463113015,1,-2.2493756,1.6848471,10.198804,-1.0117831,0.25680393,0.25680393
2463113025,1,-2.2493756,1.6848471,10.198804,-0.86456466,0.31056005,0.31056005
2463113030,1,-1.9453251,1.6633003,9.976153,-0.86456466,0.31056005,0.31056005
2463113035,1,-1.9453251,1.6633003,9.976153,-0.6684771,0.35026625,0.35026625
2463113039,1,-1.5838162,1.6944236,9.887571,-0.6684771,0.35026625,0.35026625
2463113044,1,-1.5838162,1.6944236,9.887571,-0.44306806,0.37470084,0.37470084
2463113049,1,-1.1121788,1.8117344,9.96897,-0.44306806,0.37470084,0.37470084
2463113059,1,-0.60941803,1.921863,10.100646,-0.44306806,0.37470084,0.37470084
2463113054,1,-0.60941803,1.921863,10.100646,-0.21460466,0.38325295,0.38325295
2463113064,1,-0.60941803,1.921863,10.100646,-0.013019295,0.37653342,0.37653342
2463113068,1,-0.25269726,1.9458039,10.004882,-0.013019295,0.37653342,0.37653342
2463113078,1,-0.13778053,1.9410157,9.631402,-0.013019295,0.37653342,0.37653342
2463113073,1,-0.13778053,1.9410157,9.631402,0.13603169,0.36859217,0.36859217
2463113083,1,-0.13778053,1.9410157,9.631402,0.2239962,0.3753117,0.3753117
2463113088,1,-0.2000271,1.9146807,9.193282,0.2239962,0.3753117,0.3753117
2463113092,1,-0.2000271,1.9146807,9.193282,0.26981106,0.40890926,0.40890926
2463113097,1,-0.28142646,1.9027102,8.80065,0.26981106,0.40890926,0.40890926
2463113102,1,-0.28142646,1.9027102,8.80065,0.30524123,0.4602219,0.4602219
2463113107,1,-0.30297333,1.9458039,8.393653,0.30524123,0.4602219,0.4602219
2463113116,1,-0.23833267,2.0128386,7.9938393,0.30524123,0.4602219,0.4602219
2463113112,1,-0.23833267,2.0128386,7.9938393,0.35655385,0.50848025,0.50848025
2463113126,1,-0.16172151,2.1660612,7.5509305,0.35655385,0.50848025,0.50848025
2463113121,1,-0.16172151,2.1660612,7.5509305,0.4353554,0.5439104,0.5439104
2463113131,1,-0.16172151,2.1660612,7.5509305,0.532483,0.5677341,0.5677341
2463113136,1,-0.11862774,2.4198356,7.072111,0.532483,0.5677341,0.5677341
2463113141,1,-0.11862774,2.4198356,7.072111,0.63449734,0.5781188,0.5781188
2463113145,1,0.046565086,2.6855803,6.5047097,0.63449734,0.5781188,0.5781188
2463113150,1,0.046565086,2.6855803,6.5047097,0.7187967,0.5640689,0.5640689
2463113155,1,0.3554038,2.9225962,5.8990026,0.7187967,0.5640689,0.5640689
2463113160,1,0.3554038,2.9225962,5.8990026,0.7615572,0.5176432,0.5176432
2463113165,1,0.73127735,3.2146764,5.3914537,0.7615572,0.5176432,0.5176432
2463113169,1,0.73127735,3.2146764,5.3914537,0.75117254,0.43334386,0.43334386
2463113174,1,1.1191212,3.499574,5.1304965,0.75117254,0.43334386,0.43334386
2463113179,1,1.1191212,3.499574,5.1304965,0.68519914,0.30811659,0.30811659
2463113184,1,1.4231719,3.770107,5.190349,0.68519914,0.30811659,0.30811659
2463113189,1,1.4231719,3.770107,5.190349,0.57035655,0.14623743,0.14623743
2463113193,1,1.5356945,3.8922062,5.719445,0.57035655,0.14623743,0.14623743
2463113198,1,1.5356945,3.8922062,5.719445,0.43352282,-0.040076308,-0.040076308
2463113203,1,1.2196735,3.669555,6.636385,0.43352282,-0.040076308,-0.040076308
2463113208,1,1.2196735,3.669555,6.636385,0.32356715,-0.20745325,-0.20745325
2463113213,1,0.41765037,3.2625582,7.6993647,0.32356715,-0.20745325,-0.20745325
2463113218,1,0.41765037,3.2625582,7.6993647,0.28019577,-0.30030468,-0.30030468
2463113222,1,-0.6142062,2.968084,8.506176,0.28019577,-0.30030468,-0.30030468
2463113227,1,-0.6142062,2.968084,8.506176,0.31501505,-0.30274814,-0.30274814
2463113232,1,-1.5119933,2.8292263,8.903596,0.31501505,-0.30274814,-0.30274814
2463113242,1,-1.8495611,2.8364086,8.743192,0.31501505,-0.30274814,-0.30274814
2463113237,1,-1.8495611,2.8364086,8.743192,0.41030994,-0.2202814,-0.2202814
2463113246,1,-1.8495611,2.8364086,8.743192,0.5196548,-0.09077808,-0.09077808
2463113251,1,-1.5191755,3.056666,8.21649,0.5196548,-0.09077808,-0.09077808
2463113261,1,-0.7674285,3.5091503,7.608389,0.5196548,-0.09077808,-0.09077808
2463113256,1,-0.7674285,3.5091503,7.608389,0.5941803,0.013068922,0.013068922
2463113270,1,0.068111956,4.0478225,7.3091264,0.5941803,0.013068922,0.013068922
2463113266,1,0.068111956,4.0478225,7.3091264,0.59112597,0.041779567,0.041779567
2463113275,1,0.068111956,4.0478225,7.3091264,0.48972237,-0.012587396,-0.012587396
2463113280,1,0.77197695,4.371026,7.5557184,0.48972237,-0.012587396,-0.012587396
2463113285,1,0.77197695,4.371026,7.5557184,0.2985217,-0.13109516,-0.13109516
2463113290,1,1.1478505,4.5817065,8.463082,0.2985217,-0.13109516,-0.13109516
2463113294,1,1.1478505,4.5817065,8.463082,0.058451876,-0.2893091,-0.2893091
2463113299,1,1.0257515,4.5050955,9.796595,0.058451876,-0.2893091,-0.2893091
2463113304,1,1.0257515,4.5050955,9.796595,-0.16512462,-0.43408406,-0.43408406
2463113309,1,0.48707923,4.1220393,11.290513,-0.16512462,-0.43408406,-0.43408406
2463113314,1,0.48707923,4.1220393,11.290513,-0.3074561,-0.50922036,-0.50922036
2463113319,1,-0.3652199,3.6623728,12.738943,-0.3074561,-0.50922036,-0.50922036
2463113323,1,-0.3652199,3.6623728,12.738943,-0.33250156,-0.4921162,-0.4921162
2463113328,1,-1.5862103,3.4564803,13.658276,-0.33250156,-0.4921162,-0.4921162
2463113333,1,-1.5862103,3.4564803,13.658276,-0.25125653,-0.36688894,-0.36688894
2463113338,1,-2.452874,3.329593,13.258462,-0.25125653,-0.36688894,-0.36688894
2463113343,1,-2.452874,3.329593,13.258462,-0.12602927,-0.16347098,-0.16347098
2463113347,1,-2.5103326,3.1500356,12.015925,-0.12602927,-0.16347098,-0.16347098
2463113352,1,-2.5103326,3.1500356,12.015925,-0.035010427,0.03994697,0.03994697
2463113357,1,-2.3978097,3.209888,11.197143,-0.035010427,0.03994697,0.03994697
2463113362,1,-2.3978097,3.209888,11.197143,-0.0105758365,0.2177086,0.2177086
2463113367,1,-1.9118078,3.382263,10.624953,-0.0105758365,0.2177086,0.2177086
2463113371,1,-1.9118078,3.382263,10.624953,-0.07838183,0.34354672,0.34354672
2463113376,1,-0.87755704,3.3942335,10.294568,-0.07838183,0.34354672,0.34354672
2463113381,1,-0.87755704,3.3942335,10.294568,-0.24331531,0.3838638,0.3838638
2463113386,1,0.04895918,3.2481935,11.173202,-0.24331531,0.3838638,0.3838638
2463113391,1,0.04895918,3.2481935,11.173202,-0.42107692,0.36004007,0.36004007
2463113396,1,0.63072515,2.917808,13.121998,-0.42107692,0.36004007,0.36004007
2463113400,1,0.63072515,2.917808,13.121998,-0.4858286,0.3185013,0.3185013
2463113405,1,0.9084406,2.410259,14.879267,-0.4858286,0.3185013,0.3185013
2463113410,1,0.9084406,2.410259,14.879267,-0.38503593,0.27879506,0.27879506
2463113415,1,1.1239095,1.7686405,15.748325,-0.38503593,0.27879506,0.27879506
2463113420,1,1.1239095,1.7686405,15.748325,-0.13763571,0.23969974,0.23969974
2463113424,1,1.1574268,1.3065796,15.863241,-0.13763571,0.23969974,0.23969974
2463113429,1,1.1574268,1.3065796,15.863241,0.20139422,0.19999352,0.19999352
2463113434,1,0.9682931,1.0958987,15.025307,0.20139422,0.19999352,0.19999352
2463113439,1,0.9682931,1.0958987,15.025307,0.54286766,0.17067201,0.17067201
2463113444,1,0.7049422,1.1509632,13.370985,0.54286766,0.17067201,0.17067201
2463113448,1,0.7049422,1.1509632,13.370985,0.7707202,0.15967645,0.15967645
2463113453,1,0.68578947,1.2491212,11.513164,0.7707202,0.15967645,0.15967645
2463113463,1,1.0903921,1.3065796,10.086281,0.7707202,0.15967645,0.15967645
2463113458,1,1.0903921,1.3065796,10.086281,0.8171459,0.16883942,0.16883942
2463113468,1,1.0903921,1.3065796,10.086281,0.69985986,0.18411104,0.18411104
2463113473,1,1.5835764,1.4765606,9.19807,0.69985986,0.18411104,0.18411104
2463113482,1,1.9498734,1.7710347,8.568423,0.69985986,0.18411104,0.18411104
2463113477,1,1.9498734,1.7710347,8.568423,0.47200727,0.18594363,0.18594363
2463113487,1,1.9498734,1.7710347,8.568423,0.18795519,0.15906559,0.15906559
2463113492,1,2.1509776,2.0559325,8.235643,0.18795519,0.15906559,0.15906559
2463113501,1,2.1485837,2.2067606,8.197337,0.18795519,0.15906559,0.15906559
2463113497,1,2.1485837,2.2067606,8.197337,-0.09304258,0.10164431,0.10164431
2463113506,1,2.1485837,2.2067606,8.197337,-0.31112128,0.025286216,0.025286216
2463113511,1,1.8948092,2.2977366,8.252401,-0.31112128,0.025286216,0.025286216
2463113516,1,1.8948092,2.2977366,8.252401,-0.43023992,-0.05473706,-0.05473706
2463113521,1,1.5165417,2.3312538,8.261978,-0.43023992,-0.05473706,-0.05473706
2463113530,1,1.1526387,2.4246235,8.305072,-0.43023992,-0.05473706,-0.05473706
2463113525,1,1.1526387,2.4246235,8.305072,-0.4510093,-0.118267,-0.118267
2463113535,1,1.1526387,2.4246235,8.305072,-0.39358804,-0.16286013,-0.16286013
2463113540,1,0.9491402,2.5251758,8.290707,-0.39358804,-0.16286013,-0.16286013
2463113549,1,0.8509822,2.649669,8.168608,-0.39358804,-0.16286013,-0.16286013
2463113545,1,0.8509822,2.649669,8.168608,-0.2952388,-0.19829027,-0.19829027
2463113559,1,0.81267667,2.7813444,7.9435625,-0.2952388,-0.19829027,-0.19829027
2463113554,1,0.81267667,2.7813444,7.9435625,-0.19017008,-0.23005524,-0.23005524
2463113564,1,0.81267667,2.7813444,7.9435625,-0.10587074,-0.26243106,-0.26243106
2463113569,1,0.75761235,2.824438,7.775976,-0.10587074,-0.26243106,-0.26243106
2463113574,1,0.75761235,2.824438,7.775976,-0.046616856,-0.28686565,-0.28686565
2463113578,1,0.60439,2.7957091,7.634724,-0.046616856,-0.28686565,-0.28686565
2463113583,1,0.60439,2.7957091,7.634724,0.0065283757,-0.2893091,-0.2893091
2463113588,1,0.384133,2.7957091,7.3546147,0.0065283757,-0.2893091,-0.2893091
2463113593,1,0.384133,2.7957091,7.3546147,0.06272792,-0.26670712,-0.26670712
2463113598,1,0.16626999,2.8364086,6.859036,0.06272792,-0.26670712,-0.26670712
2463113607,1,-0.02765198,2.9824486,6.2844524,0.06272792,-0.26670712,-0.26670712
2463113602,1,-0.02765198,2.9824486,6.2844524,0.1219818,-0.22516832,-0.22516832
2463113612,1,-0.02765198,2.9824486,6.2844524,0.18001395,-0.17141223,-0.17141223
2463113617,1,-0.10905134,3.207494,5.738598,0.18001395,-0.17141223,-0.17141223
2463113622,1,-0.10905134,3.207494,5.738598,0.23315918,-0.11948872,-0.11948872
2463113626,1,-0.08032216,3.4971797,5.3627243,0.23315918,-0.11948872,-0.11948872
2463113631,1,-0.08032216,3.4971797,5.3627243,0.27530885,-0.08222598,-0.08222598
2463113636,1,0.008259505,3.7772896,5.2023196,0.27530885,-0.08222598,-0.08222598
2463113641,1,0.008259505,3.7772896,5.2023196,0.30524123,-0.06267831,-0.06267831
2463113646,1,0.19978741,4.0478225,5.1472554,0.30524123,-0.06267831,-0.06267831
2463113655,1,0.43440905,4.3303256,5.190349,0.30524123,-0.06267831,-0.06267831
2463113651,1,0.43440905,4.3303256,5.190349,0.31501505,-0.05718052,-0.05718052
2463113660,1,0.43440905,4.3303256,5.190349,0.29485652,-0.07611733,-0.07611733
2463113665,1,0.6642425,4.6176176,5.408212,0.29485652,-0.07611733,-0.07611733
2463113670,1,0.6642425,4.6176176,5.408212,0.25515032,-0.1164344,-0.1164344
2463113675,1,0.8485881,4.7684464,5.623681,0.25515032,-0.1164344,-0.1164344
2463113679,1,0.8485881,4.7684464,5.623681,0.20444854,-0.17996433,-0.17996433
2463113684,1,0.94195795,4.8666043,5.8295736,0.20444854,-0.17996433,-0.17996433
2463113689,1,0.94195795,4.8666043,5.8295736,0.14397293,-0.26609626,-0.26609626
2463113694,1,0.71212447,4.847451,6.0929246,0.14397293,-0.26609626,-0.26609626
2463113699,1,0.71212447,4.847451,6.0929246,0.07311262,-0.35467166,-0.35467166
2463113703,1,0.24288115,4.667894,6.521468,0.07311262,-0.35467166,-0.35467166
2463113708,1,0.24288115,4.667894,6.521468,0.010193564,-0.4157581,-0.4157581
2463113713,1,-0.3891609,4.351873,7.179845,0.010193564,-0.4157581,-0.4157581
2463113718,1,-0.3891609,4.351873,7.179845,-0.020960538,-0.4249211,-0.4249211
2463113723,1,-1.116967,4.083734,8.08242,-0.020960538,-0.4249211,-0.4249211
2463113728,1,-1.116967,4.083734,8.08242,-0.0014128664,-0.3778845,-0.3778845
2463113732,1,-1.7705559,3.9209354,8.949084,-0.0014128664,-0.3778845,-0.3778845
2463113742,1,-2.163188,3.762925,9.573944,-0.0014128664,-0.3778845,-0.3778845
2463113737,1,-2.163188,3.762925,9.573944,0.08410819,-0.2777027,-0.2777027
2463113747,1,-2.163188,3.762925,9.573944,0.23193745,-0.14086899,-0.14086899
2463113752,1,-2.3188045,3.73659,9.468604,0.23193745,-0.14086899,-0.14086899
2463113756,1,-2.3188045,3.73659,9.468604,0.38404277,0.0063494104,0.0063494104
2463113761,1,-2.1344588,3.9759996,8.417594,0.38404277,0.0063494104,0.0063494104
2463113766,1,-2.1344588,3.9759996,8.417594,0.4561248,0.11813765,0.11813765
2463113771,1,-1.8016791,4.3614492,7.412073,0.4561248,0.11813765,0.11813765
2463113776,1,-1.8016791,4.3614492,7.412073,0.4213055,0.1657851,0.1657851
2463113780,1,-1.3635591,4.605647,7.0912633,0.4213055,0.1657851,0.1657851
2463113785,1,-1.3635591,4.605647,7.0912633,0.2930239,0.16150905,0.16150905
2463113790,1,-0.87755704,4.562554,7.395314,0.2930239,0.16150905,0.16150905
2463113800,1,-0.47056025,4.265685,8.434353,0.2930239,0.16150905,0.16150905
2463113795,1,-0.47056025,4.265685,8.434353,0.10915364,0.134631,0.134631
2463113805,1,-0.47056025,4.265685,8.434353,-0.0667754,0.12119198,0.12119198
2463113809,1,-0.16411561,3.8706594,9.866024,-0.0667754,0.12119198,0.12119198
2463113814,1,-0.16411561,3.8706594,9.866024,-0.1895592,0.13157667,0.13157667
2463113819,1,0.072900146,3.5785792,11.060679,-0.1895592,0.13157667,0.13157667
2463113824,1,0.072900146,3.5785792,11.060679,-0.2567543,0.1554004,0.1554004
2463113829,1,0.02741228,3.5785792,12.075777,-0.2567543,0.1554004,0.1554004
2463113833,1,0.02741228,3.5785792,12.075777,-0.28241065,0.20304784,0.20304784
2463113838,1,-0.31015563,3.8419302,12.691061,-0.28241065,0.20304784,0.20304784
2463113843,1,-0.31015563,3.8419302,12.691061,-0.2677499,0.29651016,0.29651016
2463113848,1,-0.22396809,3.9736054,12.056624,-0.2677499,0.29651016,0.29651016
2463113857,1,0.20936379,4.1507688,10.545948,-0.2677499,0.29651016,0.29651016
2463113853,1,0.20936379,4.1507688,10.545948,-0.2585869,0.4046332,0.4046332
2463113867,1,0.60439,4.722958,9.482968,-0.2585869,0.4046332,0.4046332
2463113862,1,0.60439,4.722958,9.482968,-0.35510355,0.46694142,0.46694142
2463113872,1,0.60439,4.722958,9.482968,-0.57379305,0.46571967,0.46571967
2463113877,1,1.2172793,4.959974,9.889965,-0.57379305,0.46571967,0.46571967
2463113881,1,1.2172793,4.959974,9.889965,-0.8114194,0.39302677,0.39302677
2463113886,1,1.5309062,4.6248,11.403035,-0.8114194,0.39302677,0.39302677
2463113891,1,1.5309062,4.6248,11.403035,-0.96047044,0.2714647,0.2714647
2463113896,1,0.98984003,4.143586,13.098057,-0.96047044,0.2714647,0.2714647
2463113901,1,0.98984003,4.143586,13.098057,-0.9574161,0.16700684,0.16700684
2463113906,1,0.14232904,3.6264613,14.259195,-0.9574161,0.16700684,0.16700684
2463113910,1,0.14232904,3.6264613,14.259195,-0.80042386,0.12180284,0.12180284
2463113915,1,-0.60462976,3.1021535,14.405235,-0.80042386,0.12180284,0.12180284
2463113920,1,-0.60462976,3.1021535,14.405235,-0.53958464,0.13585272,0.13585272
2463113925,1,-1.1840017,2.723886,13.514631,-0.53958464,0.13585272,0.13585272
2463113934,1,-1.4976287,2.750221,11.738209,-0.53958464,0.13585272,0.13585272
2463113930,1,-1.4976287,2.750221,11.738209,-0.26897162,0.18411104,0.18411104
2463113939,1,-1.4976287,2.750221,11.738209,-0.100372955,0.2177086,0.2177086
2463113944,1,-1.3779236,3.015966,10.126981,-0.100372955,0.2177086,0.2177086
2463113949,1,-1.3779236,3.015966,10.126981,-0.080214426,0.20182613,0.20182613
2463113954,1,-1.0116266,3.2290409,9.360869,-0.080214426,0.20182613,0.20182613
2463113958,1,-1.0116266,3.2290409,9.360869,-0.19017008,0.13096581,0.13096581
2463113963,1,-0.6812409,3.236223,9.368051,-0.19017008,0.13096581,0.13096581
2463113968,1,-0.6812409,3.236223,9.368051,-0.39297715,0.03200573,0.03200573
2463113973,1,-0.54956555,2.9656901,9.954606,-0.39297715,0.03200573,0.03200573
2463113978,1,-0.54956555,2.9656901,9.954606,-0.62388396,-0.04557409,-0.04557409
2463113983,1,-0.5399891,2.6209397,10.964915,-0.62388396,-0.04557409,-0.04557409
2463113987,1,-0.5399891,2.6209397,10.964915,-0.8138629,-0.08405857,-0.08405857
2463113992,1,-0.49928942,2.4222295,11.903402,-0.8138629,-0.08405857,-0.08405857
2463113997,1,-0.49928942,2.4222295,11.903402,-0.9232077,-0.10727143,-0.10727143
2463114002,1,-0.63335896,2.2737956,12.631208,-0.9232077,-0.10727143,-0.10727143
2463114007,1,-0.63335896,2.2737956,12.631208,-0.9421445,-0.11887786,-0.11887786
2463114011,1,-0.8416456,2.0870557,13.059752,-0.9421445,-0.11887786,-0.11887786
2463114016,1,-0.8416456,2.0870557,13.059752,-0.86822987,-0.11215835,-0.11215835
2463114021,1,-1.1648489,1.8620105,13.129181,-0.86822987,-0.11215835,-0.11215835
2463114026,1,-1.1648489,1.8620105,13.129181,-0.70573986,-0.08039338,-0.08039338
2463114031,1,-1.5526929,1.6297829,12.609661,-0.70573986,-0.08039338,-0.08039338
2463114040,1,-1.8519553,1.5795068,11.702298,-0.70573986,-0.08039338,-0.08039338
2463114035,1,-1.8519553,1.5795068,11.702298,-0.48766118,-0.019306907,-0.019306907
2463114045,1,-1.8519553,1.5795068,11.702298,-0.2573652,0.05644032,0.05644032
2463114050,1,-1.990813,1.6130241,10.605801,-0.2573652,0.05644032,0.05644032
2463114055,1,-1.990813,1.6130241,10.605801,-0.04967118,0.13524187,0.13524187
2463114060,1,-1.990813,1.6752708,9.533244,-0.04967118,0.13524187,0.13524187
2463114069,1,-1.8687139,1.8308872,8.683339,-0.04967118,0.13524187,0.13524187
2463114064,1,-1.8687139,1.8308872,8.683339,0.112207964,0.21648687,0.21648687
2463114079,1,-1.6077572,2.0319915,8.01778,0.112207964,0.21648687,0.21648687
2463114074,1,-1.6077572,2.0319915,8.01778,0.22155274,0.30384052,0.30384052
2463114088,1,-0.9948679,2.2498546,7.560507,0.22155274,0.30384052,0.30384052
2463114084,1,-0.9948679,2.2498546,7.560507,0.2832501,0.3905833,0.3905833
2463114098,1,-0.33649075,2.546723,7.44559,0.2832501,0.3905833,0.3905833
2463114093,1,-0.33649075,2.546723,7.44559,0.3089064,0.45411325,0.45411325
2463114103,1,-0.33649075,2.546723,7.44559,0.3174585,0.47976956,0.47976956
2463114108,1,0.11359984,2.9082315,7.5269895,0.3174585,0.47976956,0.47976956
2463114112,1,0.11359984,2.9082315,7.5269895,0.32356715,0.46999574,0.46999574
2463114117,1,0.43440905,3.2434056,7.5245957,0.32356715,0.46999574,0.46999574
2463114122,1,0.43440905,3.2434056,7.5245957,0.3327301,0.42967865,0.42967865
2463114127,1,0.6091783,3.4157805,7.3354616,0.3327301,0.42967865,0.42967865
2463114136,1,0.5972078,3.4828153,7.0385933,0.3327301,0.42967865,0.42967865
2463114132,1,0.5972078,3.4828153,7.0385933,0.35472125,0.3679813,0.3679813
2463114141,1,0.5972078,3.4828153,7.0385933,0.40053612,0.29651016,0.29651016
2463114146,1,0.48707923,3.5450618,6.6531434,0.40053612,0.29651016,0.29651016
2463114156,1,0.29315725,3.5211208,6.2365704,0.40053612,0.29651016,0.29651016
2463114151,1,0.29315725,3.5211208,6.2365704,0.4683421,0.22259551,0.22259551
2463114161,1,0.29315725,3.5211208,6.2365704,0.550198,0.14684829,0.14684829
2463114165,1,0.11120576,3.4923918,5.6284695,0.550198,0.14684829,0.14684829
2463114170,1,0.11120576,3.4923918,5.6284695,0.62228006,0.062548965,0.062548965
2463114175,1,-0.07792806,3.430145,5.0467033,0.62228006,0.062548965,0.062548965
2463114180,1,-0.07792806,3.430145,5.0467033,0.6564885,-0.027859014,-0.027859014
2463114185,1,-0.25030318,3.3918395,4.721106,0.6564885,-0.027859014,-0.027859014
2463114189,1,-0.25030318,3.3918395,4.721106,0.63510823,-0.1060497,-0.1060497
2463114194,1,-0.32452023,3.3894455,4.9748807,0.63510823,-0.1060497,-0.1060497
2463114199,1,-0.32452023,3.3894455,4.9748807,0.5611936,-0.1701905,-0.1701905
2463114204,1,-0.22636218,3.2673464,5.7290215,0.5611936,-0.1701905,-0.1701905
2463114213,1,-0.16411561,3.0949712,6.684267,0.5611936,-0.1701905,-0.1701905
2463114209,1,-0.16411561,3.0949712,6.684267,0.44818357,-0.22516832,-0.22516832
2463114218,1,-0.16411561,3.0949712,6.684267,0.3162368,-0.26853973,-0.26853973
2463114223,1,-0.26466775,2.9465373,7.5509305,0.3162368,-0.26853973,-0.26853973
2463114228,1,-0.26466775,2.9465373,7.5509305,0.19162038,-0.2874765,-0.2874765
2463114233,1,-0.49210715,2.6975508,8.489417,0.19162038,-0.2874765,-0.2874765
2463114238,1,-0.49210715,2.6975508,8.489417,0.11709489,-0.26731798,-0.26731798
2463114242,1,-0.7386993,2.4988408,9.281864,0.11709489,-0.26731798,-0.26731798
2463114247,1,-0.7386993,2.4988408,9.281864,0.118316606,-0.20378806,-0.20378806
2463114252,1,-0.77461076,2.5203876,9.803777,0.118316606,-0.20378806,-0.20378806
2463114262,1,-0.60941803,2.7885265,10.186833,0.118316606,-0.20378806,-0.20378806
2463114257,1,-0.60941803,2.7885265,10.186833,0.18978779,-0.12376478,-0.12376478
2463114266,1,-0.60941803,2.7885265,10.186833,0.31501505,-0.06817609,-0.06817609
2463114271,1,-0.07792806,3.1021535,10.241898,0.31501505,-0.06817609,-0.06817609
2463114276,1,-0.07792806,3.1021535,10.241898,0.4475727,-0.07917166,-0.07917166
2463114281,1,0.50383794,3.2912872,10.05037,0.4475727,-0.07917166,-0.07917166
2463114286,1,0.50383794,3.2912872,10.05037,0.5288178,-0.14819936,-0.14819936
2463114290,1,0.9611107,3.4612682,9.789413,0.5288178,-0.14819936,-0.14819936
2463114295,1,0.9611107,3.4612682,9.789413,0.5153787,-0.2551007,-0.2551007
2463114300,1,1.1646091,3.7318015,9.485362,0.5153787,-0.2551007,-0.2551007
2463114305,1,1.1646091,3.7318015,9.485362,0.3870971,-0.3864366,-0.3864366
2463114310,1,0.94674623,3.9233296,9.370446,0.3870971,-0.3864366,-0.3864366
2463114315,1,0.94674623,3.9233296,9.370446,0.16107714,-0.50922036,-0.50922036
2463114319,1,0.36737433,3.7796836,9.767866,0.16107714,-0.50922036,-0.50922036
2463114324,1,0.36737433,3.7796836,9.767866,-0.0875448,-0.57702637,-0.57702637
2463114329,1,-0.49928942,3.3487458,10.684806,-0.0875448,-0.57702637,-0.57702637
2463114334,1,-0.49928942,3.3487458,10.684806,-0.26286298,-0.5477049,-0.5477049
2463114339,1,-1.2773715,2.9632957,11.644839,-0.26286298,-0.5477049,-0.5477049
2463114343,1,-1.2773715,2.9632957,11.644839,-0.30867782,-0.429808,-0.429808
2463114348,1,-2.0722125,2.9489312,12.389404,-0.30867782,-0.429808,-0.429808
2463114353,1,-2.0722125,2.9489312,12.389404,-0.22804369,-0.24960291,-0.24960291
2463114358,1,-2.3834453,3.3032577,12.715002,-0.22804369,-0.24960291,-0.24960291
2463114363,1,-2.3834453,3.3032577,12.715002,-0.05639069,-0.049850143,-0.049850143
2463114367,1,-1.8112556,3.693496,12.123659,-0.05639069,-0.049850143,-0.049850143
2463114377,1,-0.9517741,4.2393503,10.615377,-0.05639069,-0.049850143,-0.049850143
2463114372,1,-0.9517741,4.2393503,10.615377,0.10854278,0.10653122,0.10653122
2463114382,1,-0.9517741,4.2393503,10.615377,0.12931217,0.18350017,0.18350017
2463114387,1,0.029806376,5.3119063,9.370446,0.12931217,0.18350017,0.18350017
2463114396,1,0.965899,6.190541,9.073577,0.12931217,0.18350017,0.18350017
2463114391,1,0.965899,6.190541,9.073577,-0.046616856,0.14440483,0.14440483
2463114406,1,1.7391928,6.0852003,10.134163,-0.046616856,0.14440483,0.14440483
2463114401,1,1.7391928,6.0852003,10.134163,-0.3593796,-0.01441999,-0.01441999
2463114416,1,1.8732624,5.0892553,12.461227,-0.3593796,-0.01441999,-0.01441999
2463114411,1,1.8732624,5.0892553,12.461227,-0.6477077,-0.24410513,-0.24410513
2463114425,1,1.4830244,3.8922062,14.28553,-0.6477077,-0.24410513,-0.24410513
2463114420,1,1.4830244,3.8922062,14.28553,-0.75033295,-0.4505774,-0.4505774
2463114430,1,1.4830244,3.8922062,14.28553,-0.65137285,-0.57946986,-0.57946986
2463114435,1,1.1047567,2.7669797,15.365269,-0.65137285,-0.57946986,-0.57946986
2463114444,1,0.68818355,1.8308872,15.800995,-0.65137285,-0.57946986,-0.57946986
2463114440,1,0.68818355,1.8308872,15.800995,-0.3954206,-0.646665,-0.646665
2463114449,1,0.68818355,1.8308872,15.800995,-0.046616856,-0.6680452,-0.6680452
2463114454,1,0.14472312,1.1653277,15.104312,-0.046616856,-0.6680452,-0.6680452
2463114459,1,0.14472312,1.1653277,15.104312,0.29363477,-0.6326151,-0.6326151
2463114464,1,-0.41070777,0.7798777,13.220156,0.29363477,-0.6326151,-0.6326151
2463114468,1,-0.41070777,0.7798777,13.220156,0.51354617,-0.53732014,-0.53732014
2463114473,1,-0.6381471,0.6601728,10.88591,0.51354617,-0.53732014,-0.53732014
2463114478,1,-0.6381471,0.6601728,10.88591,0.55813926,-0.41331467,-0.41331467
2463114483,1,-0.46098387,0.7774837,8.970631,0.55813926,-0.41331467,-0.41331467
2463114493,1,-0.05159296,1.0432286,7.6945767,0.55813926,-0.41331467,-0.41331467
2463114488,1,-0.05159296,1.0432286,7.6945767,0.4457401,-0.29969382,-0.29969382
2463114502,1,0.46313825,1.3065796,7.009864,0.4457401,-0.29969382,-0.29969382
2463114497,1,0.46313825,1.3065796,7.009864,0.22155274,-0.22883351,-0.22883351
2463114507,1,0.46313825,1.3065796,7.009864,-0.06127761,-0.20867497,-0.20867497
2463114512,1,0.92759335,1.4238905,6.981135,-0.06127761,-0.20867497,-0.20867497
2463114521,1,1.111939,1.4526196,7.613177,-0.06127761,-0.20867497,-0.20867497
2463114517,1,1.111939,1.4526196,7.613177,-0.3386102,-0.23372042,-0.23372042
2463114526,1,1.111939,1.4526196,7.613177,-0.54202807,-0.2795353,-0.2795353
2463114531,1,1.013781,1.3688262,8.558846,-0.54202807,-0.2795353,-0.2795353
2463114541,1,0.7911298,1.3233382,9.360869,-0.54202807,-0.2795353,-0.2795353
2463114536,1,0.7911298,1.3233382,9.360869,-0.6275492,-0.31618717,-0.31618717
2463114550,1,0.59002554,1.3520675,9.772654,-0.6275492,-0.31618717,-0.31618717
