time,activity,acceleration_x,acceleration_y,acceleration_z,gyro_x,gyro_y,gyro_z
2463243500,2,2.8835719,9.44412,7.294762,0,0,0
2463243510,2,2.8835719,9.44412,7.294762,0,0,0
2463243520,2,2.8835719,9.44412,7.294762,0,0,0
2463243529,2,2.8835719,9.44412,7.294762,0,0,0
2463243539,2,2.8835719,9.44412,7.294762,0,0,0
2463243549,2,2.8835719,9.44412,7.294762,0,0,0
2463243559,2,2.8835719,9.44412,7.294762,0,0,0
2463243569,2,-0.47774255,2.1564846,13.873745,0,0,0
2463243578,2,0.4894733,1.950592,14.534517,0,0,0
2463243588,2,1.1047567,1.7686405,12.954411,0,0,0
2463243598,2,1.3298019,1.5052898,10.842816,0,0,0
2463243608,2,0.9611107,1.2036333,9.200465,0,0,0
2463243618,2,-0.02286379,0.84691256,8.147061,0,0,0
2463243627,2,-1.4401703,0.518921,8.056086,0,0,0
2463243632,2,-1.4401703,0.518921,8.056086,-0.24392617,-0.46768162,-0.46768162
2463243637,2,-2.4600563,0.3178167,8.84135,-0.24392617,-0.46768162,-0.46768162
2463243642,2,-2.4600563,0.3178167,8.84135,0.023632586,-0.36811066,-0.36811066
2463243647,2,-2.2852871,0.052071746,9.607461,0.023632586,-0.36811066,-0.36811066
2463243657,2,-1.6939448,0.119106516,10.134163,0.023632586,-0.36811066,-0.36811066
2463243652,2,-1.6939448,0.119106516,10.134163,0.3663277,-0.2013446,-0.2013446
2463243667,2,-0.92065084,0.3585164,9.602673,0.3663277,-0.2013446,-0.2013446
2463243662,2,-0.92065084,0.3585164,9.602673,0.7768288,-0.01441999,-0.01441999
2463243672,2,-0.92065084,0.3585164,9.602673,1.2056558,0.15845472,0.15845472
2463243677,2,-0.31494385,0.73438984,8.410412,1.2056558,0.15845472,0.15845472
2463243686,2,0.46313825,1.4238905,7.4958663,1.2056558,0.15845472,0.15845472
2463243681,2,0.46313825,1.4238905,7.4958663,1.6149352,0.30322966,0.30322966
2463243691,2,0.46313825,1.4238905,7.4958663,1.9973364,0.39485937,0.39485937
2463243696,2,0.78634155,2.7286744,7.567689,1.9973364,0.39485937,0.39485937
2463243706,2,0.85577047,5.460341,3.9717531,1.9973364,0.39485937,0.39485937
2463243701,2,0.85577047,5.460341,3.9717531,2.2178586,0.42295915,0.42295915
2463243716,2,0.058535576,5.558499,3.976541,2.2178586,0.42295915,0.42295915
2463243711,2,0.058535576,5.558499,3.976541,1.6686913,0.36370528,0.36370528
2463243721,2,0.058535576,5.558499,3.976541,0.825698,0.35209885,0.35209885
2463243726,2,-0.44183108,3.54985,7.289974,0.825698,0.35209885,0.35209885
2463243735,2,-0.7027879,2.4342,10.92661,0.825698,0.35209885,0.35209885
2463243731,2,-0.7027879,2.4342,10.92661,0.36754942,0.5176432,0.5176432
2463243740,2,-0.7027879,2.4342,10.92661,0.27347624,0.7778716,0.7778716
2463243745,2,-0.80333996,2.1469083,12.746125,0.27347624,0.7778716,0.7778716
2463243750,2,-0.80333996,2.1469083,12.746125,0.5294286,1.0747517,1.0747517
2463243755,2,0.6379074,2.4748998,11.980013,0.5294286,1.0747517,1.0747517
2463243760,2,0.6379074,2.4748998,11.980013,0.92954504,1.3184868,1.3184868
2463243765,2,2.3089886,3.3008637,9.889965,0.92954504,1.3184868,1.3184868
2463243770,2,2.3089886,3.3008637,9.889965,1.2985072,1.3734646,1.3734646
2463243775,2,2.9123013,2.4054708,6.978741,1.2985072,1.3734646,1.3734646
2463243785,2,2.9577892,4.1651335,4.8791165,1.2985072,1.3734646,1.3734646
2463243780,2,2.9577892,4.1651335,4.8791165,1.471382,1.2036443,1.2036443
2463243789,2,2.9577892,4.1651335,4.8791165,1.3797523,0.89088154,0.89088154
2463243794,2,3.3073275,8.7713785,2.2719429,1.3797523,0.89088154,0.89088154
2463243804,2,2.1198545,13.212433,0.6966258,1.3797523,0.89088154,0.89088154
2463243799,2,2.1198545,13.212433,0.6966258,0.7921005,0.4254026,0.4254026
2463243809,2,2.1198545,13.212433,0.6966258,-0.11992063,-0.025415555,-0.025415555
2463243814,2,-0.7386993,14.77099,1.9439514,-0.11992063,-0.025415555,-0.025415555
2463243819,2,-0.7386993,14.77099,1.9439514,-0.94092274,-0.23799649,-0.23799649
2463243824,2,-3.8199046,12.525326,4.5200014,-0.94092274,-0.23799649,-0.23799649
2463243834,2,-4.77515,8.45057,6.4161277,-0.94092274,-0.23799649,-0.23799649
2463243829,2,-4.77515,8.45057,6.4161277,-1.4693208,-0.17568828,-0.17568828
2463243838,2,-4.77515,8.45057,6.4161277,-1.7723097,0.03994697,0.03994697
2463243843,2,-2.9316938,4.5841002,7.5245957,-1.7723097,0.03994697,0.03994697
2463243848,2,-2.9316938,4.5841002,7.5245957,-1.9916102,0.20976736,0.20976736
2463243853,2,-1.5862103,2.28816,9.329746,-1.9916102,0.20976736,0.20976736
2463243863,2,-1.4377762,1.4933193,12.57375,-1.9916102,0.20976736,0.20976736
2463243858,2,-1.4377762,1.4933193,12.57375,-2.177313,0.32949683,0.32949683
2463243868,2,-1.4377762,1.4933193,12.57375,-2.2579472,0.47427177,0.47427177
2463243873,2,-1.1097846,2.3575888,16.409096,-2.2579472,0.47427177,0.47427177
2463243878,2,-1.1097846,2.3575888,16.409096,-2.1797564,0.60316426,0.60316426
2463243883,2,-0.52323043,2.8220441,13.469143,-2.1797564,0.60316426,0.60316426
2463243888,2,-0.52323043,2.8220441,13.469143,-2.0539184,0.7705412,0.7705412
2463243892,2,-0.6405413,3.406204,10.747052,-2.0539184,0.7705412,0.7705412
2463243897,2,-0.6405413,3.406204,10.747052,-1.965343,0.9538006,0.9538006
2463243902,2,0.61875474,3.4828153,7.6012063,-1.965343,0.9538006,0.9538006
2463243907,2,0.61875474,3.4828153,7.6012063,-1.9066999,0.94158334,0.94158334
2463243912,2,1.3130432,5.180231,6.547803,-1.9066999,0.94158334,0.94158334
2463243917,2,1.3130432,5.180231,6.547803,-1.7057254,0.6935722,0.6935722
2463243922,2,0.80070615,7.507295,7.5006547,-1.7057254,0.6935722,0.6935722
2463243927,2,0.80070615,7.507295,7.5006547,-1.3813562,0.32277733,0.32277733
2463243932,2,-0.28142646,9.511156,8.168608,-1.3813562,0.32277733,0.32277733
2463243942,2,-1.7825264,9.9373045,8.338589,-1.3813562,0.32277733,0.32277733
2463243937,2,-1.7825264,9.9373045,8.338589,-1.1015803,-0.08650203,-0.08650203
2463243946,2,-1.7825264,9.9373045,8.338589,-0.8535691,-0.36383462,-0.36383462
2463243951,2,-2.8694472,7.868804,8.273948,-0.8535691,-0.36383462,-0.36383462
2463243956,2,-2.8694472,7.868804,8.273948,-0.5365303,-0.33390224,-0.33390224
2463243961,2,-1.4425644,4.392573,7.6419067,-0.5365303,-0.33390224,-0.33390224
2463243971,2,-0.96374464,2.4916584,7.5222015,-0.5365303,-0.33390224,-0.33390224
2463243966,2,-0.96374464,2.4916584,7.5222015,-0.28424323,-0.2031772,-0.2031772
2463243976,2,-0.96374464,2.4916584,7.5222015,-0.12358582,-0.091999814,-0.091999814
2463243981,2,-0.8224927,1.8907397,8.142273,-0.12358582,-0.091999814,-0.091999814
2463243991,2,-0.7458817,1.270668,7.7400646,-0.12358582,-0.091999814,-0.091999814
2463243986,2,-0.7458817,1.270668,7.7400646,0.054175824,0.039336104,0.039336104
2463243996,2,-0.7458817,1.270668,7.7400646,0.22094189,0.2213738,0.2213738
2463244000,2,-1.2965244,0.6458082,6.5071034,0.22094189,0.2213738,0.2213738
2463244005,2,-1.2965244,0.6458082,6.5071034,0.27958488,0.4205157,0.4205157
2463244010,2,-0.83446324,0.48061544,2.4515002,0.27958488,0.4205157,0.4205157
2463244015,2,-0.83446324,0.48061544,2.4515002,0.043791123,0.45289153,0.45289153
2463244020,2,-0.80573404,1.6992118,-1.3192053,0.043791123,0.45289153,0.45289153
2463244024,2,-0.80573404,1.6992118,-1.3192053,-0.4094705,0.26474518,0.26474518
2463244029,2,-3.297991,3.109336,-0.45014745,-0.4094705,0.26474518,0.26474518
2463244034,2,-3.297991,3.109336,-0.45014745,-0.7204006,0.1224137,0.1224137
2463244039,2,-6.8747745,1.8452518,2.494594,-0.7204006,0.1224137,0.1224137
2463244044,2,-6.8747745,1.8452518,2.494594,-0.7448352,0.35209885,0.35209885
2463244048,2,-9.551376,-0.48420638,7.0218344,-0.7448352,0.35209885,0.35209885
2463244053,2,-9.551376,-0.48420638,7.0218344,-0.38992283,1.0258826,1.0258826
2463244058,2,-7.834808,-2.1504989,11.005615,-0.38992283,1.0258826,1.0258826
2463244063,2,-7.834808,-2.1504989,11.005615,0.21116805,1.764418,1.764418
2463244068,2,-3.932427,-0.8433212,12.858647,0.21116805,1.764418,1.764418
2463244072,2,-3.932427,-0.8433212,12.858647,0.753616,2.1651454,2.1651454
2463244077,2,0.22133428,2.1971843,11.60414,0.753616,2.1651454,2.1651454
2463244082,2,0.22133428,2.1971843,11.60414,0.95947737,2.1510954,2.1510954
2463244087,2,3.8172705,4.7205644,7.7927346,0.95947737,2.1510954,2.1510954
2463244092,2,3.8172705,4.7205644,7.7927346,0.6760362,1.8065677,1.8065677
2463244097,2,5.9168954,6.051683,4.948545,0.6760362,1.8065677,1.8065677
2463244101,2,5.9168954,6.051683,4.948545,0.06211706,1.2775588,1.2775588
2463244106,2,5.8881664,6.221664,5.326813,0.06211706,1.2775588,1.2775588
2463244116,2,4.0279517,5.412459,8.077633,0.06211706,1.2775588,1.2775588
2463244111,2,4.0279517,5.412459,8.077633,-0.55607796,0.7247264,0.7247264
2463244121,2,4.0279517,5.412459,8.077633,-0.9067143,0.31422523,0.31422523
2463244125,2,2.0121202,3.552244,9.820536,-0.9067143,0.31422523,0.31422523
2463244130,2,2.0121202,3.552244,9.820536,-1.0294982,0.09981171,0.09981171
2463244135,2,0.7504301,1.9481981,9.119065,-1.0294982,0.09981171,0.09981171
2463244140,2,0.7504301,1.9481981,9.119065,-1.1431191,0.0063494104,0.0063494104
2463244145,2,0.1758464,1.1533571,7.874134,-1.1431191,0.0063494104,0.0063494104
2463244149,2,0.1758464,1.1533571,7.874134,-1.287894,-0.05107187,-0.05107187
2463244154,2,-0.44901338,0.38963968,9.190888,-1.287894,-0.05107187,-0.05107187
2463244159,2,-0.44901338,0.38963968,9.190888,-1.2903374,0.00879287,0.00879287
2463244164,2,0.12557036,-0.22085549,11.113349,-1.2903374,0.00879287,0.00879287
2463244169,2,0.12557036,-0.22085549,11.113349,-1.1345669,0.13585272,0.13585272
2463244174,2,1.2603731,-0.35731915,10.993645,-1.1345669,0.13585272,0.13585272
2463244178,2,1.2603731,-0.35731915,10.993645,-1.0441589,0.24519752,0.24519752
2463244183,2,2.2874415,-0.47941816,9.166947,-1.0441589,0.24519752,0.24519752
2463244188,2,2.2874415,-0.47941816,9.166947,-1.1803818,0.3093383,0.3093383
2463244193,2,3.2642338,-0.34534863,6.782425,-1.1803818,0.3093383,0.3093383
2463244198,2,3.2642338,-0.34534863,6.782425,-1.5279638,0.26657778,0.26657778
2463244202,2,4.3391843,0.3082403,4.9030576,-1.5279638,0.26657778,0.26657778
2463244207,2,4.3391843,0.3082403,4.9030576,-1.9635104,0.033838324,0.033838324
2463244212,2,5.1603603,0.66496104,3.588697,-1.9635104,0.033838324,0.033838324
2463244217,2,5.1603603,0.66496104,3.588697,-2.2958207,-0.37849537,-0.37849537
2463244222,2,3.7215068,0.76311904,3.7107964,-2.2958207,-0.37849537,-0.37849537
2463244226,2,3.7215068,0.76311904,3.7107964,-2.3617942,-0.7767791,-0.7767791
2463244231,2,1.3202256,-0.34774277,5.448912,-2.3617942,-0.7767791,-0.7767791
2463244236,2,1.3202256,-0.34774277,5.448912,-2.163263,-0.97775364,-0.97775364
2463244241,2,-1.3276477,-1.8416604,8.700098,-2.163263,-0.97775364,-0.97775364
2463244246,2,-1.3276477,-1.8416604,8.700098,-1.7692554,-0.89956295,-0.89956295
2463244251,2,-3.4296663,-3.0889857,11.613716,-1.7692554,-0.89956295,-0.89956295
2463244255,2,-3.4296663,-3.0889857,11.613716,-1.2823962,-0.5299898,-0.5299898
2463244260,2,-3.776811,-3.0315275,12.047048,-1.2823962,-0.5299898,-0.5299898
2463244265,2,-3.776811,-3.0315275,12.047048,-0.9158773,-0.03518939,-0.03518939
2463244270,2,-2.4624505,-2.4353967,10.579465,-0.9158773,-0.03518939,-0.03518939
2463244275,2,-2.4624505,-2.4353967,10.579465,-0.86517555,0.38997245,0.38997245
2463244279,2,0.23809296,-1.5687331,9.274682,-0.86517555,0.38997245,0.38997245
2463244284,2,0.23809296,-1.5687331,9.274682,-1.0429373,0.66974854,0.66974854
2463244289,2,3.6185606,0.3441518,9.645767,-1.0429373,0.66974854,0.66974854
2463244299,2,6.572879,1.8883456,11.556258,-1.0429373,0.66974854,0.66974854
2463244294,2,6.572879,1.8883456,11.556258,-1.2365813,0.6563095,0.6563095
2463244303,2,6.572879,1.8883456,11.556258,-1.24269,0.32766426,0.32766426
2463244308,2,7.5496707,1.9529861,13.849804,-1.24269,0.32766426,0.32766426
2463244318,2,6.862564,1.0456228,16.057163,-1.24269,0.32766426,0.32766426
2463244313,2,6.862564,1.0456228,16.057163,-0.91526645,-0.08100425,-0.08100425
2463244323,2,6.862564,1.0456228,16.057163,-0.3593796,-0.35650423,-0.35650423
2463244327,2,5.634392,0.01855437,17.74979,-0.3593796,-0.35650423,-0.35650423
2463244332,2,5.634392,0.01855437,17.74979,0.23193745,-0.4249211,-0.4249211
2463244337,2,5.761279,-0.70925164,18.154392,0.23193745,-0.4249211,-0.4249211
2463244342,2,5.761279,-0.70925164,18.154392,0.70230335,-0.36261287,-0.36261287
2463244347,2,6.4579616,-0.010174815,18.108908,0.70230335,-0.36261287,-0.36261287
2463244352,2,6.4579616,-0.010174815,18.108908,0.8880062,-0.3137437,-0.3137437
2463244356,2,7.5113654,1.9338335,17.072262,0.8880062,-0.3137437,-0.3137437
2463244361,2,7.5113654,1.9338335,17.072262,0.74872905,-0.35833684,-0.35833684
2463244366,2,7.1330976,2.4006824,14.61831,0.74872905,-0.35833684,-0.35833684
2463244371,2,7.1330976,2.4006824,14.61831,0.3968709,-0.42247763,-0.42247763
2463244376,2,6.8410177,4.3590555,12.873012,0.3968709,-0.42247763,-0.42247763
2463244380,2,6.8410177,4.3590555,12.873012,0.12014921,-0.6784299,-0.6784299
2463244385,2,8.25593,5.946343,10.313721,0.12014921,-0.6784299,-0.6784299
2463244390,2,8.25593,5.946343,10.313721,-0.18833748,-1.2642492,-1.2642492
2463244395,2,6.7524357,5.534558,10.577071,-0.18833748,-1.2642492,-1.2642492
2463244400,2,6.7524357,5.534558,10.577071,-0.3887011,-1.6509266,-1.6509266
2463244404,2,5.2968235,4.7588696,12.851465,-0.3887011,-1.6509266,-1.6509266
2463244409,2,5.2968235,4.7588696,12.851465,-0.42107692,-1.7926472,-1.7926472
2463244414,2,4.633659,3.1691883,12.834706,-0.42107692,-1.7926472,-1.7926472
2463244419,2,4.633659,3.1691883,12.834706,-0.50965226,-1.8213578,-1.8213578
2463244424,2,3.0439768,2.3911064,12.801189,-0.50965226,-1.8213578,-1.8213578
2463244429,2,3.0439768,2.3911064,12.801189,-0.6483185,-1.7645475,-1.7645475
2463244433,2,0.20218149,1.9888976,13.07651,-0.6483185,-1.7645475,-1.7645475
2463244438,2,0.20218149,1.9888976,13.07651,-0.68863565,-1.5928944,-1.5928944
2463244443,2,-2.0506654,2.216337,12.48038,-0.68863565,-1.5928944,-1.5928944
2463244448,2,-2.0506654,2.216337,12.48038,-0.64159906,-1.2746339,-1.2746339
2463244453,2,-2.2278287,3.7006783,14.80505,-0.64159906,-1.2746339,-1.2746339
2463244457,2,-2.2278287,3.7006783,14.80505,-0.5175935,-0.8885674,-0.8885674
2463244462,2,0.53256714,5.441188,17.936531,-0.5175935,-0.8885674,-0.8885674
2463244467,2,0.53256714,5.441188,17.936531,-0.38259247,-0.72485566,-0.72485566
2463244472,2,2.1868892,6.585567,18.027508,-0.38259247,-0.72485566,-0.72485566
2463244477,2,2.1868892,6.585567,18.027508,-0.25919777,-0.7492902,-0.7492902
2463244481,2,2.299412,6.8058243,16.715542,-0.25919777,-0.7492902,-0.7492902
2463244486,2,2.299412,6.8058243,16.715542,-0.09426431,-0.81098753,-0.81098753
2463244491,2,1.4135954,6.3653097,14.972637,-0.09426431,-0.81098753,-0.81098753
2463244496,2,1.4135954,6.3653097,14.972637,0.20078334,-0.8238157,-0.8238157
2463244501,2,0.965899,6.477833,14.958272,0.20078334,-0.8238157,-0.8238157
2463244505,2,0.965899,6.477833,14.958272,0.58807164,-0.8726849,-0.8726849
2463244510,2,1.2914964,7.2271852,14.496211,0.58807164,-0.8726849,-0.8726849
2463244515,2,1.2914964,7.2271852,14.496211,0.8519652,-1.1280264,-1.1280264
2463244520,2,0.3793448,6.647814,13.368591,0.8519652,-1.1280264,-1.1280264
2463244525,2,0.3793448,6.647814,13.368591,1.101198,-1.4340696,-1.4340696
2463244530,2,-0.9661387,5.558499,11.017586,1.101198,-1.4340696,-1.4340696
2463244534,2,-0.9661387,5.558499,11.017586,1.3272179,-1.6527592,-1.6527592
2463244539,2,-1.3324357,3.9233296,7.610783,1.3272179,-1.6527592,-1.6527592
2463244544,2,-1.3324357,3.9233296,7.610783,1.3821957,-1.7779865,-1.7779865
2463244549,2,-2.1703703,2.7885265,7.146328,1.3821957,-1.7779865,-1.7779865
2463244554,2,-2.1703703,2.7885265,7.146328,1.3388243,-1.7223978,-1.7223978
2463244558,2,-2.7497423,2.2570367,9.648161,1.3388243,-1.7223978,-1.7223978
2463244563,2,-2.7497423,2.2570367,9.648161,1.3485981,-1.4841605,-1.4841605
2463244568,2,-2.9939404,2.3743474,11.711874,1.3485981,-1.4841605,-1.4841605
2463244573,2,-2.9939404,2.3743474,11.711874,1.4548886,-1.1445198,-1.1445198
2463244578,2,-2.962817,3.090183,11.793274,1.4548886,-1.1445198,-1.1445198
2463244587,2,-2.4911795,3.552244,10.900275,1.4548886,-1.1445198,-1.1445198
2463244582,2,-2.4911795,3.552244,10.900275,1.652198,-0.8244266,-0.8244266
2463244592,2,-2.4911795,3.552244,10.900275,1.9393044,-0.63628024,-0.63628024
2463244597,2,-1.047538,2.120573,9.04006,1.9393044,-0.63628024,-0.63628024
2463244602,2,-1.047538,2.120573,9.04006,2.2221348,-0.569696,-0.569696
2463244607,2,-1.7801323,0.71763116,8.810226,2.2221348,-0.569696,-0.569696
2463244611,2,-1.7801323,0.71763116,8.810226,2.3064342,-0.35283905,-0.35283905
2463244616,2,-2.0722125,0.36569867,8.700098,2.3064342,-0.35283905,-0.35283905
2463244621,2,-2.0722125,0.36569867,8.700098,2.1830394,-0.00403529,-0.00403529
2463244626,2,-0.9828974,0.3297872,11.350365,2.1830394,-0.00403529,-0.00403529
2463244631,2,-0.9828974,0.3297872,11.350365,1.954576,0.25313875,0.25313875
2463244635,2,-0.24790907,0.3369695,13.912051,1.954576,0.25313875,0.25313875
2463244640,2,-0.24790907,0.3369695,13.912051,2.0052776,0.32949683,0.32949683
2463244645,2,-0.8655865,-0.06284499,15.154588,2.0052776,0.32949683,0.32949683
2463244650,2,-0.8655865,-0.06284499,15.154588,2.2575648,0.5090911,0.5090911
2463244655,2,-0.57590055,0.566803,12.348704,2.2575648,0.5090911,0.5090911
2463244664,2,-0.26466775,1.9194688,7.366585,2.2575648,0.5090911,0.5090911
2463244659,2,-0.26466775,1.9194688,7.366585,2.4298286,0.5836166,0.5836166
2463244669,2,-0.26466775,1.9194688,7.366585,2.3217056,0.5042042,0.5042042
2463244674,2,-1.143302,2.8603497,4.050758,2.3217056,0.5042042,0.5042042
2463244683,2,-2.3211985,3.1620061,2.3892539,2.3217056,0.5042042,0.5042042
2463244679,2,-2.3211985,3.1620061,2.3892539,1.9490782,0.39180505,0.39180505
2463244688,2,-2.3211985,3.1620061,2.3892539,1.3846391,0.35026625,0.35026625
2463244693,2,-2.500756,2.5371463,2.7651272,1.3846391,0.35026625,0.35026625
2463244703,2,-1.3252535,1.3975554,4.9581213,1.3846391,0.35026625,0.35026625
2463244698,2,-1.3252535,1.3975554,4.9581213,0.7603355,0.4309004,0.4309004
2463244708,2,-1.3252535,1.3975554,4.9581213,0.14458379,0.6166033,0.6166033
2463244712,2,0.98744583,1.002529,7.0840816,0.14458379,0.6166033,0.6166033
2463244717,2,0.98744583,1.002529,7.0840816,-0.4772765,0.7595456,0.7595456
2463244722,2,2.5220633,0.8325479,10.184439,-0.4772765,0.7595456,0.7595456
2463244727,2,2.5220633,0.8325479,10.184439,-0.9506966,0.79619753,0.79619753
2463244732,2,2.4646046,0.40161014,12.62642,-0.9506966,0.79619753,0.79619753
2463244736,2,2.4646046,0.40161014,12.62642,-1.1425081,0.8053605,0.8053605
2463244741,2,1.4997829,-0.1921263,12.990323,-1.1425081,0.8053605,0.8053605
2463244746,2,1.4997829,-0.1921263,12.990323,-1.0863086,0.8407906,0.8407906
2463244751,2,0.8366177,-0.35013685,11.975225,-1.0863086,0.8407906,0.8407906
2463244756,2,0.8366177,-0.35013685,11.975225,-0.85418,0.88416207,0.88416207
2463244760,2,1.1717914,-0.14903253,9.957,-0.85418,0.88416207,0.88416207
2463244765,2,1.1717914,-0.14903253,9.957,-0.55668885,0.8743882,0.8743882
2463244770,2,2.2587123,0.013766173,7.44559,-0.55668885,0.8743882,0.8743882
2463244775,2,2.2587123,0.013766173,7.44559,-0.30195832,0.7735955,0.7735955
2463244780,2,3.6401072,-0.13945615,5.89182,-0.30195832,0.7735955,0.7735955
2463244785,2,3.6401072,-0.13945615,5.89182,-0.12969446,0.60010993,0.60010993
2463244789,2,5.1052957,-0.67812836,5.9923725,-0.12969446,0.60010993,0.60010993
2463244794,2,5.1052957,-0.67812836,5.9923725,-0.0056889197,0.3893616,0.3893616
2463244799,2,5.543416,-1.690832,7.0409875,-0.0056889197,0.3893616,0.3893616
2463244804,2,5.543416,-1.690832,7.0409875,0.13175564,0.21404341,0.21404341
2463244809,2,5.102902,-2.6197424,7.536566,0.13175564,0.21404341,0.21404341
2463244813,2,5.102902,-2.6197424,7.536566,0.26186982,0.14807002,0.14807002
2463244818,2,4.4708595,-2.9668868,6.9212823,0.26186982,0.14807002,0.14807002
2463244828,2,3.8890936,-3.1368678,5.2693543,0.26186982,0.14807002,0.14807002
2463244823,2,3.8890936,-3.1368678,5.2693543,0.35105607,0.16334164,0.16334164
2463244837,2,3.4964612,-3.5295,3.0452368,0.35105607,0.16334164,0.16334164
2463244833,2,3.4964612,-3.5295,3.0452368,0.39931437,0.21282168,0.21282168
2463244847,2,3.759812,-3.701875,1.1682633,0.39931437,0.21282168,0.21282168
2463244842,2,3.759812,-3.701875,1.1682633,0.40908822,0.32094473,0.32094473
2463244857,2,5.031079,-3.4648592,-0.04554479,0.40908822,0.32094473,0.32094473
2463244852,2,5.031079,-3.4648592,-0.04554479,0.3803776,0.4272352,0.4272352
2463244866,2,6.601608,-3.7545452,-0.6608282,0.3803776,0.4272352,0.4272352
2463244862,2,6.601608,-3.7545452,-0.6608282,0.24537647,0.42845693,0.42845693
2463244871,2,6.601608,-3.7545452,-0.6608282,0.008360971,0.3478228,0.3478228
2463244876,2,8.15059,-4.2740645,-0.41902417,0.008360971,0.3478228,0.3478228
2463244881,2,8.15059,-4.2740645,-0.41902417,-0.2885193,0.18533278,0.18533278
2463244886,2,9.388338,-4.9587774,1.3861263,-0.2885193,0.18533278,0.18533278
2463244890,2,9.388338,-4.9587774,1.3861263,-0.5609649,-0.01441999,-0.01441999
2463244895,2,9.388338,-6.2276497,4.824052,-0.5609649,-0.01441999,-0.01441999
2463244900,2,9.388338,-6.2276497,4.824052,-0.6330469,-0.15308629,-0.15308629
2463244905,2,8.076373,-7.3002057,7.9172277,-0.6330469,-0.15308629,-0.15308629
2463244910,2,8.076373,-7.3002057,7.9172277,-0.3764838,-0.18668385,-0.18668385
2463244914,2,6.5848494,-7.7526903,7.945957,-0.3764838,-0.18668385,-0.18668385
2463244919,2,6.5848494,-7.7526903,7.945957,0.10060154,-0.15430802,-0.15430802
2463244924,2,5.4165287,-7.2068357,5.0251565,0.10060154,-0.15430802,-0.15430802
2463244934,2,4.7916694,-5.5716662,0.8474541,0.10060154,-0.15430802,-0.15430802
2463244929,2,4.7916694,-5.5716662,0.8474541,0.5782978,-0.12559737,-0.12559737
2463244943,2,5.969566,-3.503165,-3.3805242,0.5782978,-0.12559737,-0.12559737
2463244938,2,5.969566,-3.503165,-3.3805242,0.8623499,-0.11887786,-0.11887786
2463244948,2,5.969566,-3.503165,-3.3805242,0.803096,-0.16896877,-0.16896877
2463244953,2,8.9310665,-1.8129311,-6.0068507,0.803096,-0.16896877,-0.16896877
2463244958,2,8.9310665,-1.8129311,-6.0068507,0.35288867,-0.3778845,-0.3778845
2463244963,2,9.759424,-2.3803325,-5.8392634,0.35288867,-0.3778845,-0.3778845
2463244967,2,9.759424,-2.3803325,-5.8392634,-0.42474213,-0.59046537,-0.59046537
2463244972,2,9.769,-3.5007708,-3.9575021,-0.42474213,-0.59046537,-0.59046537
2463244982,2,9.445797,-3.8048213,-0.33762485,-0.42474213,-0.59046537,-0.59046537
2463244977,2,9.445797,-3.8048213,-0.33762485,-1.3941845,-0.58924365,-0.58924365
2463244987,2,9.445797,-3.8048213,-0.33762485,-2.3300292,-0.42675367,-0.42675367
2463244991,2,9.467344,-4.348282,3.3373168,-2.3300292,-0.42675367,-0.42675367
2463244996,2,9.467344,-4.348282,3.3373168,-3.063067,-0.1494211,-0.1494211
2463245001,2,11.126454,-4.4344697,6.9428296,-3.063067,-0.1494211,-0.1494211
2463245006,2,11.126454,-4.4344697,6.9428296,-3.577415,0.03322746,0.03322746
2463245011,2,12.94597,-3.5630171,8.769527,-3.577415,0.03322746,0.03322746
2463245015,2,12.94597,-3.5630171,8.769527,-3.9372144,-0.020528637,-0.020528637
2463245020,2,13.412818,-2.246263,8.920355,-3.9372144,-0.020528637,-0.020528637
2463245025,2,13.412818,-2.246263,8.920355,-4.2200446,-0.21050757,-0.21050757
2463245030,2,12.78317,-0.50335914,9.9163,-4.2200446,-0.21050757,-0.21050757
2463245035,2,12.78317,-0.50335914,9.9163,-4.4778295,-0.42369935,-0.42369935
2463245040,2,11.648368,1.1461749,12.705425,-4.4778295,-0.42369935,-0.42369935
2463245049,2,10.918167,2.1373317,14.017391,-4.4778295,-0.42369935,-0.42369935
2463245044,2,10.918167,2.1373317,14.017391,-4.661089,-0.5886328,-0.5886328
2463245054,2,10.918167,2.1373317,14.017391,-4.854122,-0.76822704,-0.76822704
2463245059,2,8.672503,2.7095213,17.23506,-4.854122,-0.76822704,-0.76822704
2463245064,2,8.672503,2.7095213,17.23506,-5.012947,-0.91116935,-0.91116935
2463245068,2,4.5091653,3.2170703,23.028778,-5.012947,-0.91116935,-0.91116935
2463245073,2,4.5091653,3.2170703,23.028778,-4.8968825,-0.8592459,-0.8592459
2463245078,2,0.68818355,4.902516,28.812922,-4.8968825,-0.8592459,-0.8592459
2463245083,2,0.68818355,4.902516,28.812922,-4.440567,-0.6179543,-0.6179543
2463245088,2,-1.4114412,7.1745152,31.063375,-4.440567,-0.6179543,-0.6179543
2463245092,2,-1.4114412,7.1745152,31.063375,-3.8339782,-0.38521487,-0.38521487
2463245097,2,-2.6013083,9.489609,29.574245,-3.8339782,-0.38521487,-0.38521487
2463245107,2,-4.322665,12.228457,27.086777,-3.8339782,-0.38521487,-0.38521487
2463245102,2,-4.322665,12.228457,27.086777,-3.1999006,-0.31007853,-0.31007853
2463245116,2,-5.625055,14.198801,24.656767,-3.1999006,-0.31007853,-0.31007853
2463245112,2,-5.625055,14.198801,24.656767,-2.5621579,-0.348563,-0.348563
2463245126,2,-6.211609,15.158834,22.58587,-2.5621579,-0.348563,-0.348563
2463245121,2,-6.211609,15.158834,22.58587,-1.9494605,-0.41820157,-0.41820157
2463245131,2,-6.211609,15.158834,22.58587,-1.4222842,-0.47256854,-0.47256854
2463245136,2,-5.603508,15.326422,21.740753,-1.4222842,-0.47256854,-0.47256854
2463245141,2,-5.603508,15.326422,21.740753,-0.9879593,-0.5171616,-0.5171616
2463245145,2,-4.724873,14.409482,22.693605,-0.9879593,-0.5171616,-0.5171616
2463245150,2,-4.724873,14.409482,22.693605,-0.57379305,-0.5519809,-0.5519809
2463245155,2,-3.4153018,13.171733,24.259344,-0.57379305,-0.5519809,-0.5519809
2463245160,2,-3.4153018,13.171733,24.259344,-0.15412906,-0.57580465,-0.57580465
2463245165,2,-1.7537972,11.8070965,25.463577,-0.15412906,-0.57580465,-0.57580465
2463245169,2,-1.7537972,11.8070965,25.463577,0.29913256,-0.6460541,-0.6460541
2463245174,2,-1.4641113,9.750566,26.466705,0.29913256,-0.6460541,-0.6460541
2463245179,2,-1.4641113,9.750566,26.466705,0.8537978,-0.6955341,-0.6955341
2463245184,2,-2.3020458,7.1936684,26.624716,0.8537978,-0.6955341,-0.6955341
2463245189,2,-2.3020458,7.1936684,26.624716,1.516586,-0.6313933,-0.6313933
2463245193,2,-3.4512134,4.8115396,24.932087,1.516586,-0.6313933,-0.6313933
2463245198,2,-3.4512134,4.8115396,24.932087,2.1854827,-0.42797542,-0.42797542
2463245203,2,-3.9874914,2.9848428,21.245174,2.1854827,-0.42797542,-0.42797542
2463245208,2,-3.9874914,2.9848428,21.245174,2.7511435,-0.13964726,-0.13964726
2463245213,2,-3.8151162,1.7327292,17.057898,2.7511435,-0.13964726,-0.13964726
2463245222,2,-3.1615274,0.8732476,13.947962,2.7511435,-0.13964726,-0.13964726
2463245218,2,-3.1615274,0.8732476,13.947962,3.1787488,0.15112434,0.15112434
2463245227,2,-3.1615274,0.8732476,13.947962,3.4963984,0.4150179,0.4150179
2463245232,2,-1.4449586,0.39203376,12.901741,3.4963984,0.4150179,0.4150179
2463245242,2,0.19739327,-0.280708,15.291052,3.4963984,0.4150179,0.4150179
2463245237,2,0.19739327,-0.280708,15.291052,3.7480748,0.581784,0.581784
2463245246,2,0.19739327,-0.280708,15.291052,4.0162444,0.68868536,0.68868536
2463245251,2,2.1150665,-0.9654202,18.95881,4.0162444,0.68868536,0.68868536
2463245256,2,2.1150665,-0.9654202,18.95881,4.30274,0.77664983,0.77664983
2463245261,2,4.0279517,-1.8967246,22.657694,4.30274,0.77664983,0.77664983
2463245266,2,4.0279517,-1.8967246,22.657694,4.5941224,0.8273516,0.8273516
2463245270,2,5.011926,-2.2366867,23.770948,4.5941224,0.8273516,0.8273516
2463245275,2,5.011926,-2.2366867,23.770948,4.8360248,0.8523971,0.8523971
2463245280,2,5.3159766,-0.9965435,21.558804,4.8360248,0.8523971,0.8523971
2463245285,2,5.3159766,-0.9965435,21.558804,4.898944,0.8004736,0.8004736
2463245290,2,5.349494,0.73917806,17.321247,4.898944,0.8004736,0.8004736
2463245294,2,5.349494,0.73917806,17.321247,4.699802,0.62210107,0.62210107
2463245299,2,5.0598083,2.8028913,16.380367,4.699802,0.62210107,0.62210107
2463245304,2,5.0598083,2.8028913,16.380367,4.41575,0.33316204,0.33316204
2463245309,2,4.4349484,2.8603497,17.644451,4.41575,0.33316204,0.33316204
2463245319,2,3.8699405,0.80621284,16.964527,4.41575,0.33316204,0.33316204
2463245314,2,3.8699405,0.80621284,16.964527,4.205002,0.07415539,0.07415539
2463245323,2,3.8699405,0.80621284,16.964527,3.927669,0.008182004,0.008182004
2463245328,2,3.8843052,-0.2950726,16.181658,3.927669,0.008182004,0.008182004
2463245333,2,3.8843052,-0.2950726,16.181658,3.498842,0.13707446,0.13707446
2463245338,2,5.3303413,-0.42914212,15.870424,3.498842,0.13707446,0.13707446
2463245343,2,5.3303413,-0.42914212,15.870424,2.9307377,0.30322966,0.30322966
2463245347,2,6.886505,0.19092949,14.76435,2.9307377,0.30322966,0.30322966
2463245352,2,6.886505,0.19092949,14.76435,2.234963,0.40341148,0.40341148
2463245357,2,7.2887144,0.6194731,12.861042,2.234963,0.40341148,0.40341148
2463245367,2,6.6470957,0.277117,11.228266,2.234963,0.40341148,0.40341148
2463245362,2,6.6470957,0.277117,11.228266,1.5220838,0.44189596,0.44189596
2463245371,2,6.6470957,0.277117,11.228266,0.9924641,0.4864891,0.4864891
2463245376,2,5.3255534,-0.31901357,9.882783,0.9924641,0.4864891,0.4864891
2463245381,2,5.3255534,-0.31901357,9.882783,0.73406833,0.5781188,0.5781188
2463245386,2,4.341578,-1.0180904,8.479841,0.73406833,0.5781188,0.5781188
2463245391,2,4.341578,-1.0180904,8.479841,0.712688,0.7283915,0.7283915
2463245396,2,4.691117,-1.78899,7.0912633,0.712688,0.7283915,0.7283915
2463245400,2,4.691117,-1.78899,7.0912633,0.84219134,0.8530079,0.8530079
2463245405,2,5.9671717,-2.6388953,6.0282836,0.84219134,0.8530079,0.8530079
2463245410,2,5.9671717,-2.6388953,6.0282836,1.0596591,0.8994337,0.8994337
2463245415,2,7.125915,-4.228577,5.087403,1.0596591,0.8994337,0.8994337
2463245420,2,7.125915,-4.228577,5.087403,1.3101137,0.9049314,0.9049314
2463245424,2,7.482636,-6.7902627,5.262172,1.3101137,0.9049314,0.9049314
2463245429,2,7.482636,-6.7902627,5.262172,1.5923332,0.9684614,0.9684614
2463245434,2,7.607129,-8.650477,5.4608827,1.5923332,0.9684614,0.9684614
2463245444,2,7.4970007,-9.787674,4.8288407,1.5923332,0.9684614,0.9684614
2463245439,2,7.4970007,-9.787674,4.8288407,1.9289197,1.0894126,1.0894126
2463245448,2,7.4970007,-9.787674,4.8288407,2.315597,1.2537352,1.2537352
2463245453,2,8.083554,-9.246608,2.736398,2.315597,1.2537352,1.2537352
2463245458,2,8.083554,-9.246608,2.736398,2.695555,1.3752972,1.3752972
2463245463,2,9.354821,-8.243481,-1.5370682,2.695555,1.3752972,1.3752972
2463245468,2,9.354821,-8.243481,-1.5370682,2.9869373,1.3325367,1.3325367
2463245473,2,10.901409,-6.725622,-5.767441,2.9869373,1.3325367,1.3325367
2463245482,2,11.171942,-5.111999,-8.16154,2.9869373,1.3325367,1.3325367
2463245477,2,11.171942,-5.111999,-8.16154,3.1818032,1.0417651,1.0417651
2463245487,2,11.171942,-5.111999,-8.16154,3.318637,0.60010993,0.60010993
2463245492,2,10.614118,-4.2237887,-11.166133,3.318637,0.60010993,0.60010993
2463245497,2,10.614118,-4.2237887,-11.166133,3.2667134,0.1761698,0.1761698
2463245501,2,9.972498,-4.3219466,-13.629661,3.2667134,0.1761698,0.1761698
2463245506,2,9.972498,-4.3219466,-13.629661,2.8427732,-0.16041666,-0.16041666
2463245511,2,9.153717,-5.499843,-13.756548,2.8427732,-0.16041666,-0.16041666
2463245516,2,9.153717,-5.499843,-13.756548,1.9435804,-0.29358518,-0.29358518
2463245521,2,8.646168,-6.768716,-12.585834,1.9435804,-0.29358518,-0.29358518
2463245525,2,8.646168,-6.768716,-12.585834,0.5495872,-0.2306661,-0.2306661
2463245530,2,8.394787,-7.656926,-9.92599,0.5495872,-0.2306661,-0.2306661
2463245535,2,8.394787,-7.656926,-9.92599,-1.1186844,-0.07611733,-0.07611733
2463245540,2,7.7555633,-8.202781,-5.8871455,-1.1186844,-0.07611733,-0.07611733
2463245549,2,5.876196,-8.367973,1.7308766,-1.1186844,-0.07611733,-0.07611733
2463245545,2,5.876196,-8.367973,1.7308766,-2.6311855,0.13218755,0.13218755
2463245554,2,5.876196,-8.367973,1.7308766,-3.4662375,0.40341148,0.40341148
2463245559,2,3.6736248,-7.472581,9.097518,-3.4662375,0.40341148,0.40341148
2463245564,2,3.6736248,-7.472581,9.097518,-3.3483407,0.8053605,0.8053605
2463245569,2,4.0542865,-7.132619,9.966576,-3.3483407,0.8053605,0.8053605
2463245574,2,4.0542865,-7.132619,9.966576,-2.6849415,1.1669923,1.1669923
2463245578,2,6.2089753,-5.162276,7.857375,-2.6849415,1.1669923,1.1669923
2463245583,2,6.2089753,-5.162276,7.857375,-1.9103651,1.2885544,1.2885544
2463245588,2,7.8632975,-1.6668911,4.0100584,-1.9103651,1.2885544,1.2885544
2463245593,2,7.8632975,-1.6668911,4.0100584,-1.4241168,1.2146398,1.2146398
2463245598,2,8.222412,1.5412011,0.24892937,-1.4241168,1.2146398,1.2146398
2463245602,2,8.222412,1.5412011,0.24892937,-1.5560635,1.0912452,1.0912452
2463245607,2,7.9925795,3.2027059,-0.3950832,-1.5560635,1.0912452,1.0912452
2463245617,2,8.325359,3.1189122,3.272676,-1.5560635,1.0912452,1.0912452
2463245612,2,8.325359,3.1189122,3.272676,-2.2707753,1.1034625,1.1034625
2463245622,2,8.325359,3.1189122,3.272676,-3.2768695,1.2971065,1.2971065
2463245626,2,10.312461,2.8268323,8.817409,-3.2768695,1.2971065,1.2971065
2463245631,2,10.312461,2.8268323,8.817409,-4.2780766,1.4767008,1.4767008
2463245636,2,12.560519,3.3894455,13.15791,-4.2780766,1.4767008,1.4767008
2463245641,2,12.560519,3.3894455,13.15791,-5.1284003,1.4412706,1.4412706
2463245646,2,13.633075,4.318355,16.016464,-5.1284003,1.4412706,1.4412706
2463245651,2,13.633075,4.318355,16.016464,-5.727048,1.1541642,1.1541642
2463245655,2,12.57249,5.247266,18.36268,-5.727048,1.1541642,1.1541642
2463245660,2,12.57249,5.247266,18.36268,-5.957955,0.7070113,0.7070113
2463245665,2,10.357948,6.4898033,18.908535,-5.957955,0.7070113,0.7070113
2463245670,2,10.357948,6.4898033,18.908535,-5.804017,0.19449574,0.19449574
2463245675,2,8.200865,7.8544393,17.196754,-5.804017,0.19449574,0.19449574
2463245684,2,6.0940585,8.069908,15.461033,-5.804017,0.19449574,0.19449574
2463245679,2,6.0940585,8.069908,15.461033,-5.4087873,-0.36322376,-0.36322376
2463245689,2,6.0940585,8.069908,15.461033,-4.9072676,-0.88062614,-0.88062614
2463245694,2,3.728689,6.932711,14.551275,-4.9072676,-0.88062614,-0.88062614
2463245699,2,3.728689,6.932711,14.551275,-4.4283495,-1.2495885,-1.2495885
2463245703,2,1.1334858,6.0588655,14.060485,-4.4283495,-1.2495885,-1.2495885
2463245708,2,1.1334858,6.0588655,14.060485,-4.0703826,-1.4200197,-1.4200197
2463245713,2,-1.5933926,5.8481846,14.08682,-4.0703826,-1.4200197,-1.4200197
2463245718,2,-1.5933926,5.8481846,14.08682,-3.8199282,-1.3925308,-1.3925308
2463245723,2,-4.157472,6.192935,14.821808,-3.8199282,-1.3925308,-1.3925308
2463245732,2,-5.749548,7.157757,15.532856,-3.8199282,-1.3925308,-1.3925308
2463245727,2,-5.749548,7.157757,15.532856,-3.6018496,-1.2013302,-1.2013302
2463245742,2,-5.6944833,8.192007,15.894365,-3.6018496,-1.2013302,-1.2013302
2463245737,2,-5.6944833,8.192007,15.894365,-3.4106488,-0.93988,-0.93988
2463245752,2,-5.6442075,8.685192,16.526407,-3.4106488,-0.93988,-0.93988
2463245747,2,-5.6442075,8.685192,16.526407,-3.2267785,-0.7627292,-0.7627292
2463245756,2,-5.6442075,8.685192,16.526407,-2.9207354,-0.70408624,-0.70408624
2463245761,2,-6.668882,8.761803,17.663603,-2.9207354,-0.70408624,-0.70408624
2463245766,2,-6.668882,8.761803,17.663603,-2.3648484,-0.6265064,-0.6265064
2463245771,2,-7.928178,8.6013975,18.561392,-2.3648484,-0.6265064,-0.6265064
2463245776,2,-7.928178,8.6013975,18.561392,-1.5731678,-0.45851865,-0.45851865
2463245780,2,-8.689501,8.654069,18.31001,-1.5731678,-0.45851865,-0.45851865
2463245785,2,-8.689501,8.654069,18.31001,-0.6776401,-0.20378806,-0.20378806
2463245790,2,-7.97606,9.70029,16.423462,-0.6776401,-0.20378806,-0.20378806
2463245795,2,-7.97606,9.70029,16.423462,0.13969688,0.039336104,0.039336104
2463245800,2,-5.1031413,11.3187,13.694188,0.13969688,0.039336104,0.039336104
2463245804,2,-5.1031413,11.3187,13.694188,0.64182776,0.099200845,0.099200845
2463245809,2,-1.9237783,12.305069,13.50266,0.64182776,0.099200845,0.099200845
2463245819,2,-0.113839544,11.696968,16.366001,0.64182776,0.099200845,0.099200845
2463245814,2,-0.113839544,11.696968,16.366001,0.76094633,-0.0315242,-0.0315242
2463245824,2,-0.113839544,11.696968,16.366001,0.6961947,-0.20867497,-0.20867497
2463245829,2,0.04895918,9.65959,20.096006,0.6961947,-0.20867497,-0.20867497
2463245833,2,0.04895918,9.65959,20.096006,0.6595428,-0.30824593,-0.30824593
2463245838,2,-1.0882378,7.014111,23.67758,0.6595428,-0.30824593,-0.30824593
2463245843,2,-1.0882378,7.014111,23.67758,0.82814145,-0.2563224,-0.2563224
2463245848,2,-2.8048065,4.368632,26.385305,0.82814145,-0.2563224,-0.2563224
2463245853,2,-2.8048065,4.368632,26.385305,1.3192767,-0.018085178,-0.018085178
2463245857,2,-3.8629982,2.5275698,26.785118,1.3192767,-0.018085178,-0.018085178
2463245862,2,-3.8629982,2.5275698,26.785118,2.0565903,0.3594292,0.3594292
2463245867,2,-3.104069,2.0104446,24.905752,2.0565903,0.3594292,0.3594292
2463245872,2,-3.104069,2.0104446,24.905752,2.8183386,0.73694366,0.73694366
2463245877,2,-0.3724022,2.676004,23.272978,2.8183386,0.73694366,0.73694366
2463245881,2,-0.3724022,2.676004,23.272978,3.486014,0.9336421,0.9336421
2463245886,2,2.5507922,3.7030723,23.586603,3.486014,0.9336421,0.9336421
2463245891,2,2.5507922,3.7030723,23.586603,4.072444,0.91042924,0.91042924
2463245896,2,4.923344,5.0844674,23.05272,4.072444,0.91042924,0.91042924
2463245901,2,4.923344,5.0844674,23.05272,4.4585104,0.6911288,0.6911288
2463245905,2,6.3406506,7.0452337,21.17814,4.4585104,0.6911288,0.6911288
2463245910,2,6.3406506,7.0452337,21.17814,4.43713,0.32277733,0.32277733
2463245915,2,6.5106316,7.988509,21.226023,4.43713,0.32277733,0.32277733
2463245920,2,6.5106316,7.988509,21.226023,4.0419006,-0.08222598,-0.08222598
2463245925,2,5.2680945,6.7675185,25.552158,4.0419006,-0.08222598,-0.08222598
2463245930,2,5.2680945,6.7675185,25.552158,3.5849738,-0.31985235,-0.31985235
2463245934,2,4.463678,3.3463519,29.253435,3.5849738,-0.31985235,-0.31985235
2463245939,2,4.463678,3.3463519,29.253435,3.2709894,-0.30763507,-0.30763507
2463245944,2,4.8970094,-0.13945615,29.253435,3.2709894,-0.30763507,-0.30763507
2463245949,2,4.8970094,-0.13945615,29.253435,3.0962822,-0.16041666,-0.16041666
2463245954,2,5.624815,-1.8464484,27.465042,3.0962822,-0.16041666,-0.16041666
2463245958,2,5.624815,-1.8464484,27.465042,3.0639062,0.036281783,0.036281783
2463245963,2,7.4491186,-2.243869,23.859531,3.0639062,0.036281783,0.036281783
2463245968,2,7.4491186,-2.243869,23.859531,3.0865083,0.1242463,0.1242463
2463245973,2,8.89276,-2.2869627,19.645918,3.0865083,0.1242463,0.1242463
2463245978,2,8.89276,-2.2869627,19.645918,3.0584085,0.09064874,0.09064874
2463245982,2,9.780972,-2.660442,16.320515,3.0584085,0.09064874,0.09064874
2463245987,2,9.780972,-2.660442,16.320515,2.983883,-0.020528637,-0.020528637
2463245992,2,9.666054,-3.4241598,13.495478,2.983883,-0.020528637,-0.020528637
2463245997,2,9.666054,-3.4241598,13.495478,2.9130228,-0.1598058,-0.1598058
2463246002,2,7.8537216,-4.743308,10.237109,2.9130228,-0.1598058,-0.1598058
2463246007,2,7.8537216,-4.743308,10.237109,2.8458276,-0.20012286,-0.20012286
2463246011,2,5.1603603,-5.6434894,6.3850045,2.8458276,-0.20012286,-0.20012286
2463246016,2,5.1603603,-5.6434894,6.3850045,2.7224329,-0.09077808,-0.09077808
2463246021,2,2.445452,-6.112733,2.0899913,2.7224329,-0.09077808,-0.09077808
2463246026,2,2.445452,-6.112733,2.0899913,2.468924,0.16211991,0.16211991
2463246031,2,0.2596399,-6.2779255,-1.2449882,2.468924,0.16211991,0.16211991
2463246035,2,0.2596399,-6.2779255,-1.2449882,2.1060705,0.52314097,0.52314097
2463246040,2,-0.51604813,-6.206103,-3.469106,2.1060705,0.52314097,0.52314097
2463246050,2,0.98265755,-5.880505,-4.541662,2.1060705,0.52314097,0.52314097
2463246045,2,0.98265755,-5.880505,-4.541662,1.72428,0.9183705,0.9183705
2463246055,2,0.98265755,-5.880505,-4.541662,1.4011326,1.2115855,1.2115855
2463246059,2,4.1500506,-5.6674304,-4.38844,1.4011326,1.2115855,1.2115855
2463246069,2,7.3509607,-6.021757,-3.2249079,1.4011326,1.2115855,1.2115855
2463246064,2,7.3509607,-6.021757,-3.2249079,1.1396824,1.3068804,1.3068804
2463246079,2,9.599019,-6.900391,-1.9273064,1.1396824,1.3068804,1.3068804
2463246074,2,9.599019,-6.900391,-1.9273064,0.94664925,1.227468,1.227468
2463246088,2,10.329219,-7.6234093,-0.95290816,0.94664925,1.227468,1.227468
2463246084,2,10.329219,-7.6234093,-0.95290816,0.8525761,1.0478737,1.0478737
2463246098,2,9.481709,-7.8340898,-0.7709567,0.8525761,1.0478737,1.0478737
2463246093,2,9.481709,-7.8340898,-0.7709567,0.87517804,0.85117537,0.85117537
2463246108,2,8.145802,-7.4223046,-1.8387247,0.87517804,0.85117537,0.85117537
2463246103,2,8.145802,-7.4223046,-1.8387247,0.99918354,0.73327845,0.73327845
2463246112,2,8.145802,-7.4223046,-1.8387247,1.1799995,0.69907004,0.69907004
2463246117,2,6.984663,-6.6944985,-3.7994914,1.1799995,0.69907004,0.69907004
2463246127,2,6.5609083,-5.7296767,-6.253443,1.1799995,0.69907004,0.69907004
2463246122,2,6.5609083,-5.7296767,-6.253443,1.3479873,0.7131199,0.7131199
2463246132,2,6.5609083,-5.7296767,-6.253443,1.4280106,0.71250904,0.71250904
2463246136,2,6.9679046,-4.757673,-8.621206,1.4280106,0.71250904,0.71250904
2463246141,2,6.9679046,-4.757673,-8.621206,1.326607,0.64836824,0.64836824
2463246146,2,7.614311,-4.0538077,-10.110336,1.326607,0.64836824,0.64836824
2463246151,2,7.614311,-4.0538077,-10.110336,0.9710838,0.5451321,0.5451321
2463246156,2,8.018914,-3.991561,-10.309046,0.9710838,0.5451321,0.5451321
2463246160,2,8.018914,-3.991561,-10.309046,0.33761704,0.47488266,0.47488266
2463246165,2,8.4618225,-3.9388907,-8.827099,0.33761704,0.47488266,0.47488266
2463246170,2,8.4618225,-3.9388907,-8.827099,-0.5011002,0.48160216,0.48160216
2463246175,2,9.613384,-3.4504948,-5.334109,-0.5011002,0.48160216,0.48160216
2463246180,2,9.613384,-3.4504948,-5.334109,-1.3593651,0.5182541,0.5182541
2463246185,2,10.966049,-3.333184,-0.7709567,-1.3593651,0.5182541,0.5182541
2463246189,2,10.966049,-3.333184,-0.7709567,-2.0142121,0.5182541,0.5182541
2463246194,2,12.263651,-3.0267391,3.631791,-2.0142121,0.5182541,0.5182541
2463246199,2,12.263651,-3.0267391,3.631791,-2.345301,0.4223483,0.4223483
2463246204,2,12.79993,-2.169652,7.179845,-2.345301,0.4223483,0.4223483
2463246209,2,12.79993,-2.169652,7.179845,-2.2921555,0.25863653,0.25863653
2463246213,2,12.299562,-1.5160629,9.391992,-2.2921555,0.25863653,0.25863653
2463246218,2,12.299562,-1.5160629,9.391992,-1.8767675,0.16456337,0.16456337
2463246223,2,12.543761,-0.13227385,9.075971,-1.8767675,0.16456337,0.16456337
2463246233,2,12.598825,2.479688,5.1951375,-1.8767675,0.16456337,0.16456337
2463246228,2,12.598825,2.479688,5.1951375,-1.3935735,0.027729675,0.027729675
2463246237,2,12.598825,2.479688,5.1951375,-1.2952243,-0.27159405,-0.27159405
2463246242,2,11.36347,4.809146,0.9408239,-1.2952243,-0.27159405,-0.27159405
2463246247,2,11.36347,4.809146,0.9408239,-1.8126267,-0.54403967,-0.54403967
2463246252,2,9.687601,5.5991983,0.30638778,-1.8126267,-0.54403967,-0.54403967
2463246257,2,9.687601,5.5991983,0.30638778,-2.7814581,-0.59107625,-0.59107625
2463246262,2,9.110623,4.1220393,2.446712,-2.7814581,-0.59107625,-0.59107625
2463246266,2,9.110623,4.1220393,2.446712,-4.0056314,-0.41881242,-0.41881242
2463246271,2,10.379496,2.264219,6.4807687,-4.0056314,-0.41881242,-0.41881242
2463246276,2,10.379496,2.264219,6.4807687,-5.215143,-0.25265723,-0.25265723
2463246281,2,11.792014,0.6458082,12.149994,-5.215143,-0.25265723,-0.25265723
2463246286,2,11.792014,0.6458082,12.149994,-6.038589,-0.26120934,-0.26120934
2463246290,2,11.576545,0.0017956793,18.381832,-6.038589,-0.26120934,-0.26120934
2463246300,2,10.068262,0.73438984,22.348854,-6.038589,-0.26120934,-0.26120934
2463246295,2,10.068262,0.73438984,22.348854,-6.2438393,-0.4175907,-0.4175907
2463246305,2,10.068262,0.73438984,22.348854,-5.8699903,-0.63872373,-0.63872373
2463246310,2,8.528857,2.020021,22.482925,-5.8699903,-0.63872373,-0.63872373
2463246314,2,8.528857,2.020021,22.482925,-5.1510024,-0.8897891,-0.8897891
2463246319,2,6.1323643,2.6592453,21.087166,-5.1510024,-0.8897891,-0.8897891
2463246324,2,6.1323643,2.6592453,21.087166,-4.3251133,-1.0461706,-1.0461706
2463246329,2,3.6472895,2.5634813,19.976303,-4.3251133,-1.0461706,-1.0461706
2463246334,2,3.6472895,2.5634813,19.976303,-3.5432065,-1.0376184,-1.0376184
2463246338,2,1.791863,2.4342,18.949236,-3.5432065,-1.0376184,-1.0376184
2463246343,2,1.791863,2.4342,18.949236,-2.8419337,-0.9337714,-0.9337714
2463246348,2,0.22372839,2.9968133,17.572626,-2.8419337,-0.9337714,-0.9337714
2463246353,2,0.22372839,2.9968133,17.572626,-2.2170193,-0.80304635,-0.80304635
2463246358,2,-1.4976287,4.543401,15.623832,-2.2170193,-0.80304635,-0.80304635
2463246363,2,-1.4976287,4.543401,15.623832,-1.7283274,-0.6405563,-0.6405563
2463246367,2,-2.938876,6.238423,13.035811,-1.7283274,-0.6405563,-0.6405563
2463246372,2,-2.938876,6.238423,13.035811,-1.4894793,-0.4475231,-0.4475231
2463246377,2,-3.2692618,7.964568,10.481307,-1.4894793,-0.4475231,-0.4475231
2463246382,2,-3.2692618,7.964568,10.481307,-1.540792,-0.2844222,-0.2844222
2463246387,2,-2.3451395,9.573401,8.951478,-1.540792,-0.2844222,-0.2844222
2463246391,2,-2.3451395,9.573401,8.951478,-1.802242,-0.25571156,-0.25571156
2463246396,2,-0.80573404,10.574136,9.008937,-1.802242,-0.25571156,-0.25571156
2463246401,2,-0.80573404,10.574136,9.008937,-2.096679,-0.42186677,-0.42186677
2463246406,2,-0.4083137,10.645959,10.701564,-2.096679,-0.42186677,-0.42186677
2463246411,2,-0.4083137,10.645959,10.701564,-2.208467,-0.7065297,-0.7065297
2463246415,2,-1.9405369,10.198262,12.583326,-2.208467,-0.7065297,-0.7065297
2463246425,2,-3.9204564,9.44412,12.978352,-2.208467,-0.7065297,-0.7065297
2463246420,2,-3.9204564,9.44412,12.978352,-2.0349815,-0.96187115,-0.96187115
2463246430,2,-3.9204564,9.44412,12.978352,-1.6373086,-1.1359676,-1.1359676
2463246435,2,-6.800557,9.377086,12.140418,-1.6373086,-1.1359676,-1.1359676
2463246440,2,-6.800557,9.377086,12.140418,-1.1510602,-1.1536827,-1.1536827
2463246444,2,-9.292814,9.379479,10.344844,-1.1510602,-1.1536827,-1.1536827
2463246449,2,-9.292814,9.379479,10.344844,-0.7649937,-0.97531015,-0.97531015
2463246454,2,-10.535351,9.336387,10.682412,-0.7649937,-0.97531015,-0.97531015
2463246459,2,-10.535351,9.336387,10.682412,-0.5640192,-0.6454432,-0.6454432
2463246464,2,-10.018226,8.938966,14.019785,-0.5640192,-0.6454432,-0.6454432
2463246468,2,-10.018226,8.938966,14.019785,-0.4681135,-0.23188783,-0.23188783
2463246473,2,-7.825231,8.704345,19.236526,-0.4681135,-0.23188783,-0.23188783
2463246478,2,-7.825231,8.704345,19.236526,-0.33250156,0.13951792,0.13951792
2463246483,2,-5.162994,7.8496513,26.452341,-0.33250156,0.13951792,0.13951792
2463246488,2,-5.162994,7.8496513,26.452341,0.046845447,0.43700904,0.43700904
2463246492,2,-2.5079384,6.3796744,33.627457,0.046845447,0.43700904,0.43700904
2463246502,2,0.72888315,5.1467137,36.950462,0.046845447,0.43700904,0.43700904
2463246497,2,0.72888315,5.1467137,36.950462,0.82020026,0.66852677,0.66852677
2463246507,2,0.72888315,5.1467137,36.950462,1.8959329,0.757713,0.757713
2463246512,2,3.8196647,4.3853903,34.87478,1.8959329,0.757713,0.757713
2463246516,2,3.8196647,4.3853903,34.87478,3.0254219,0.65386605,0.65386605
2463246521,2,5.3877997,4.198651,29.543121,3.0254219,0.65386605,0.65386605
2463246526,2,5.3877997,4.198651,29.543121,3.955158,0.45411325,0.45411325
2463246531,2,5.541022,4.416514,23.658426,3.955158,0.45411325,0.45411325
2463246536,2,5.541022,4.416514,23.658426,4.5336466,0.26046914,0.26046914
2463246541,2,4.9353147,4.983915,18.717007,4.5336466,0.26046914,0.26046914
2463246550,2,4.205115,6.3198223,15.597496,4.5336466,0.26046914,0.26046914
2463246545,2,4.205115,6.3198223,15.597496,4.6845303,0.115694195,0.115694195
2463246555,2,4.205115,6.3198223,15.597496,4.3687134,0.027729675,0.027729675
2463246560,2,3.93937,8.299742,16.794544,4.3687134,0.027729675,0.027729675
2463246565,2,3.93937,8.299742,16.794544,3.7138665,-0.030302472,-0.030302472
2463246569,2,4.5762,8.093849,23.814043,3.7138665,-0.030302472,-0.030302472
2463246574,2,4.5762,8.093849,23.814043,3.0681825,-0.021750366,-0.021750366
2463246579,2,6.0150533,5.170655,33.888412,3.0681825,-0.021750366,-0.021750366
2463246584,2,6.0150533,5.170655,33.888412,2.8103974,0.08576182,0.08576182
2463246589,2,8.516886,0.44470394,38.159485,2.8103974,0.08576182,0.08576182
2463246593,2,8.516886,0.44470394,38.159485,2.9851048,0.21221082,0.21221082
2463246598,2,9.29018,-2.732265,35.715107,2.9851048,0.21221082,0.21221082
2463246603,2,9.29018,-2.732265,35.715107,3.3852212,0.33438376,0.33438376
2463246608,2,8.301418,-3.6707518,28.820103,3.3852212,0.33438376,0.33438376
2463246613,2,8.301418,-3.6707518,28.820103,3.7725093,0.5249736,0.5249736
2463246618,2,8.380424,-3.0004041,20.529339,3.7725093,0.5249736,0.5249736
2463246622,2,8.380424,-3.0004041,20.529339,3.9032345,0.6611964,0.6611964
2463246627,2,8.258325,-2.095435,14.601551,3.9032345,0.6611964,0.6611964
2463246637,2,8.366058,-2.3276625,11.32403,3.9032345,0.6611964,0.6611964
2463246632,2,8.366058,-2.3276625,11.32403,3.7401335,0.7381654,0.7381654
2463246642,2,8.366058,-2.3276625,11.32403,3.4212623,0.79619753,0.79619753
2463246646,2,8.421123,-3.309243,9.164553,3.4212623,0.79619753,0.79619753
2463246651,2,8.421123,-3.309243,9.164553,3.0932279,0.8352929,0.8352929
2463246656,2,7.6645875,-3.9748023,6.930859,3.0932279,0.8352929,0.8352929
2463246661,2,7.6645875,-3.9748023,6.930859,2.7340393,0.92386824,0.92386824
2463246666,2,6.8912935,-4.276459,4.63013,2.7340393,0.92386824,0.92386824
2463246670,2,6.8912935,-4.276459,4.63013,2.2813885,1.0619236,1.0619236
2463246675,2,6.247281,-4.336312,2.0923855,2.2813885,1.0619236,1.0619236
2463246680,2,6.247281,-4.336312,2.0923855,1.7322212,1.191427,1.191427
2463246685,2,5.3159766,-4.535022,-0.3831127,1.7322212,1.191427,1.191427
2463246690,2,5.3159766,-4.535022,-0.3831127,1.1628953,1.3148216,1.3148216
2463246695,2,4.415796,-4.88456,-2.2169924,1.1628953,1.3148216,1.3148216
2463246699,2,4.415796,-4.88456,-2.2169924,0.68580997,1.444325,1.444325
2463246704,2,3.8148763,-5.4136558,-3.4355886,0.68580997,1.444325,1.444325
2463246709,2,3.8148763,-5.4136558,-3.4355886,0.34616914,1.5860455,1.5860455
2463246714,2,4.9520736,-5.4902673,-3.6055696,0.34616914,1.5860455,1.5860455
2463246719,2,4.9520736,-5.4902673,-3.6055696,0.17268357,1.6477429,1.6477429
2463246723,2,6.1371527,-6.055274,-2.7580588,0.17268357,1.6477429,1.6477429
2463246728,2,6.1371527,-6.055274,-2.7580588,0.13297737,1.6373582,1.6373582
2463246733,2,6.809894,-6.6490107,-1.5274918,0.13297737,1.6373582,1.6373582
2463246743,2,7.0373335,-7.015308,-0.6608282,0.13297737,1.6373582,1.6373582
2463246738,2,7.0373335,-7.015308,-0.6608282,0.18367913,1.6306387,1.6306387
2463246747,2,7.0373335,-7.015308,-0.6608282,0.3162368,1.6367474,1.6367474
2463246752,2,6.8482,-6.5269117,-0.94812,0.3162368,1.6367474,1.6367474
2463246757,2,6.8482,-6.5269117,-0.94812,0.5111027,1.6452994,1.6452994
2463246762,2,6.378957,-5.586031,-2.329515,0.5111027,1.6452994,1.6452994
2463246767,2,6.378957,-5.586031,-2.329515,0.7187967,1.6507972,1.6507972
2463246771,2,6.046177,-4.7648554,-4.419563,0.7187967,1.6507972,1.6507972
2463246776,2,6.046177,-4.7648554,-4.419563,0.8837302,1.6300278,1.6300278
2463246781,2,6.3981094,-3.8862207,-6.545523,0.8837302,1.6300278,1.6300278
2463246791,2,7.0756392,-3.0578625,-8.269274,0.8837302,1.6300278,1.6300278
2463246786,2,7.0756392,-3.0578625,-8.269274,0.952147,1.529846,1.529846
2463246796,2,7.0756392,-3.0578625,-8.269274,0.8837302,1.3484192,1.3484192
2463246800,2,7.5377,-2.9525223,-9.447171,0.8837302,1.3484192,1.3484192
2463246805,2,7.5377,-2.9525223,-9.447171,0.6131171,1.1566076,1.1566076
2463246810,2,7.652617,-3.7090576,-9.63391,0.6131171,1.1566076,1.1566076
2463246815,2,7.652617,-3.7090576,-9.63391,0.13297737,1.0161088,1.0161088
2463246820,2,7.6478286,-4.7073965,-8.774429,0.13297737,1.0161088,1.0161088
2463246824,2,7.6478286,-4.7073965,-8.774429,-0.47238958,0.95807666,0.95807666
2463246829,2,8.088344,-5.2197337,-6.837603,-0.47238958,0.95807666,0.95807666
2463246839,2,8.732355,-5.60279,-4.146636,-0.47238958,0.95807666,0.95807666
2463246834,2,8.732355,-5.60279,-4.146636,-1.071037,0.9654071,0.9654071
2463246844,2,8.732355,-5.60279,-4.146636,-1.5334616,0.9867873,0.9867873
2463246848,2,9.673236,-5.399291,-1.7597195,-1.5334616,0.9867873,0.9867873
2463246858,2,10.638059,-4.8965306,0.23456477,-1.5334616,0.9867873,0.9867873
2463246853,2,10.638059,-4.8965306,0.23456477,-1.8272876,0.94219416,0.94219416
2463246863,2,10.638059,-4.8965306,0.23456477,-1.9726733,0.82490814,0.82490814
2463246868,2,11.112089,-4.130419,2.6119049,-1.9726733,0.82490814,0.82490814
2463246873,2,11.112089,-4.130419,2.6119049,-1.9622886,0.6715811,0.6715811
2463246877,2,10.88465,-2.883093,4.575066,-1.9622886,0.6715811,0.6715811
2463246882,2,10.88465,-2.883093,4.575066,-1.7802509,0.5903361,0.5903361
2463246887,2,11.914113,-1.6980144,4.4673314,-1.7802509,0.5903361,0.5903361
2463246892,2,11.914113,-1.6980144,4.4673314,-1.5670592,0.5194758,0.5194758
2463246897,2,13.671381,-0.3309841,2.4251652,-1.5670592,0.5194758,0.5194758
2463246901,2,13.671381,-0.3309841,2.4251652,-1.6275347,0.30017534,0.30017534
2463246906,2,14.770272,2.0750854,-0.86432654,-1.6275347,0.30017534,0.30017534
2463246911,2,14.770272,2.0750854,-0.86432654,-2.254282,-0.018696044,-0.018696044
2463246916,2,14.957012,3.308046,-2.2744508,-2.254282,-0.018696044,-0.018696044
2463246921,2,14.957012,3.308046,-2.2744508,-3.5236588,-0.22089227,-0.22089227
2463246925,2,15.617784,1.2658799,0.6678966,-3.5236588,-0.22089227,-0.22089227
2463246930,2,15.617784,1.2658799,0.6678966,-5.247519,-0.21967053,-0.21967053
2463246935,2,17.365475,-1.5040923,7.7472467,-5.247519,-0.21967053,-0.21967053
2463246940,2,17.365475,-1.5040923,7.7472467,-7.0715613,-0.20623152,-0.20623152
2463246945,2,19.15626,-4.2884297,19.416082,-7.0715613,-0.20623152,-0.20623152
2463246949,2,19.15626,-4.2884297,19.416082,-8.406912,-0.35528252,-0.35528252
2463246954,2,18.627165,-6.371295,33.467052,-8.406912,-0.35528252,-0.35528252
2463246959,2,18.627165,-6.371295,33.467052,-8.650647,-0.6937015,-0.6937015
2463246964,2,14.564381,-5.2580395,43.730553,-8.650647,-0.6937015,-0.6937015
2463246969,2,14.564381,-5.2580395,43.730553,-7.62195,-1.0571661,-1.0571661
2463246974,2,10.527929,-1.3077763,44.702557,-7.62195,-1.0571661,-1.0571661
2463246978,2,10.527929,-1.3077763,44.702557,-5.770419,-1.396196,-1.396196
2463246983,2,6.79553,2.0367796,38.386925,-5.770419,-1.396196,-1.396196
2463246988,2,6.79553,2.0367796,38.386925,-3.9366033,-1.6600896,-1.6600896
2463246993,2,3.635319,4.684653,30.93888,-3.9366033,-1.6600896,-1.6600896
2463247002,2,1.6123056,5.989436,25.262472,-3.9366033,-1.6600896,-1.6600896
2463246998,2,1.6123056,5.989436,25.262472,-2.7002132,-1.7535518,-1.7535518
2463247012,2,0.30512777,6.9303174,21.903553,-2.7002132,-1.7535518,-1.7535518
2463247007,2,0.30512777,6.9303174,21.903553,-2.114394,-1.7065153,-1.7065153
2463247017,2,0.30512777,6.9303174,21.903553,-1.9073108,-1.5751793,-1.5751793
2463247022,2,-0.71954656,7.8568335,20.361753,-1.9073108,-1.5751793,-1.5751793
2463247031,2,-1.4162292,8.800109,19.174278,-1.9073108,-1.5751793,-1.5751793
2463247026,2,-1.4162292,8.800109,19.174278,-1.770477,-1.4200197,-1.4200197
2463247041,2,-1.8782904,9.5566435,17.809643,-1.770477,-1.4200197,-1.4200197
2463247036,2,-1.8782904,9.5566435,17.809643,-1.5530093,-1.3051772,-1.3051772
2463247051,2,-2.1536117,9.841542,16.75624,-1.5530093,-1.3051772,-1.3051772
2463247046,2,-2.1536117,9.841542,16.75624,-1.2329161,-1.2465341,-1.2465341
2463247060,2,-3.0657632,9.685925,15.932671,-1.2329161,-1.2465341,-1.2465341
2463247055,2,-3.0657632,9.685925,15.932671,-0.7949261,-1.2282082,-1.2282082
2463247070,2,-3.803146,9.594949,14.639857,-0.7949261,-1.2282082,-1.2282082
2463247065,2,-3.803146,9.594949,14.639857,-0.2537,-1.1811717,-1.1811717
2463247075,2,-3.803146,9.594949,14.639857,0.29546738,-1.0895419,-1.0895419
2463247079,2,-4.2316895,9.238229,13.220156,0.29546738,-1.0895419,-1.0895419
2463247084,2,-4.2316895,9.238229,13.220156,0.834861,-0.98936003,-0.98936003
2463247089,2,-4.6171393,9.168799,11.781303,0.834861,-0.98936003,-0.98936003
2463247094,2,-4.6171393,9.168799,11.781303,1.3754762,-0.89711946,-0.89711946
2463247099,2,-4.899643,9.535097,9.775048,1.3754762,-0.89711946,-0.89711946
2463247103,2,-4.899643,9.535097,9.775048,1.8690549,-0.85252637,-0.85252637
2463247108,2,-4.9858303,10.064193,7.172663,1.8690549,-0.85252637,-0.85252637
2463247113,2,-4.9858303,10.064193,7.172663,2.2398498,-0.86474365,-0.86474365
2463247118,2,-5.191723,10.1072855,4.7641997,2.2398498,-0.86474365,-0.86474365
2463247123,2,-5.191723,10.1072855,4.7641997,2.4475439,-0.91849977,-0.91849977
2463247127,2,-5.6681485,9.547067,2.6238754,2.4475439,-0.91849977,-0.91849977
2463247132,2,-5.6681485,9.547067,2.6238754,2.4707568,-0.96126026,-0.96126026
2463247137,2,-6.158939,8.766591,1.0533465,2.4707568,-0.96126026,-0.96126026
2463247147,2,-6.731128,7.715582,1.1778396,2.4707568,-0.96126026,-0.96126026
2463247142,2,-6.731128,7.715582,1.1778396,2.3052123,-0.9551516,-0.9551516
2463247152,2,-6.731128,7.715582,1.1778396,2.0333774,-0.86596537,-0.86596537
2463247156,2,-7.1764307,6.3270044,3.006931,2.0333774,-0.86596537,-0.86596537
2463247161,2,-7.1764307,6.3270044,3.006931,1.7951403,-0.6625474,-0.6625474
2463247166,2,-6.877168,5.242478,5.7362037,1.7951403,-0.6625474,-0.6625474
2463247171,2,-6.877168,5.242478,5.7362037,1.6900716,-0.40415168,-0.40415168
2463247176,2,-5.871647,4.406937,8.487023,1.6900716,-0.40415168,-0.40415168
2463247185,2,-4.6410804,3.865871,11.443735,1.6900716,-0.40415168,-0.40415168
2463247180,2,-4.6410804,3.865871,11.443735,1.7383299,-0.1579732,-0.1579732
2463247195,2,-2.7234073,3.8012304,14.120338,1.7383299,-0.1579732,-0.1579732
2463247190,2,-2.7234073,3.8012304,14.120338,1.9490782,0.065603286,0.065603286
2463247200,2,-2.7234073,3.8012304,14.120338,2.2997146,0.23298022,0.23298022
2463247204,2,-0.16411561,4.416514,16.490496,2.2997146,0.23298022,0.23298022
2463247214,2,2.1629481,5.615957,18.008352,2.2997146,0.23298022,0.23298022
2463247209,2,2.1629481,5.615957,18.008352,2.7291524,0.23908886,0.23908886
2463247219,2,2.1629481,5.615957,18.008352,3.1756945,0.04910994,0.04910994
2463247224,2,2.9506068,7.0284753,17.910194,3.1756945,0.04910994,0.04910994
2463247233,2,2.3377175,9.64762,15.736354,3.1756945,0.04910994,0.04910994
2463247229,2,2.3377175,9.64762,15.736354,3.5238874,-0.19645768,-0.19645768
2463247243,2,1.8062277,12.611514,12.966382,3.5238874,-0.19645768,-0.19645768
2463247238,2,1.8062277,12.611514,12.966382,3.5086157,-0.4078169,-0.4078169
2463247248,2,1.8062277,12.611514,12.966382,2.9234073,-0.57275033,-0.57275033
2463247253,2,2.4550285,13.88278,14.110761,2.9234073,-0.57275033,-0.57275033
2463247257,2,2.4550285,13.88278,14.110761,1.9222001,-0.7138601,-0.7138601
2463247262,2,2.8285077,10.928462,20.198956,1.9222001,-0.7138601,-0.7138601
2463247272,2,3.149317,5.7787557,27.196905,1.9222001,-0.7138601,-0.7138601
2463247267,2,3.149317,5.7787557,27.196905,0.9833011,-0.70225364,-0.70225364
2463247277,2,3.149317,5.7787557,27.196905,0.44940528,-0.46523815,-0.46523815
2463247281,2,4.236238,2.240278,31.28363,0.44940528,-0.46523815,-0.46523815
2463247286,2,4.236238,2.240278,31.28363,0.40969908,-0.13842553,-0.13842553
2463247291,2,6.5297847,0.97379977,29.66522,0.40969908,-0.13842553,-0.13842553
2463247296,2,6.5297847,0.97379977,29.66522,0.6357191,0.065603286,0.065603286
2463247301,2,7.932727,0.64102006,24.783653,0.6357191,0.065603286,0.065603286
2463247306,2,7.932727,0.64102006,24.783653,0.85990644,0.13524187,0.13524187
2463247310,2,7.762746,0.91634136,19.27244,0.85990644,0.13524187,0.13524187
2463247315,2,7.762746,0.91634136,19.27244,0.9533687,0.1676177,0.1676177
2463247320,2,7.4084187,1.4741664,14.575216,0.9533687,0.1676177,0.1676177
2463247325,2,7.4084187,1.4741664,14.575216,0.90633214,0.16639596,0.16639596
2463247330,2,6.4962673,0.65777874,11.16602,0.90633214,0.16639596,0.16639596
2463247334,2,6.4962673,0.65777874,11.16602,0.71574235,0.20365871,0.20365871
2463247339,2,5.337524,-1.226377,9.281864,0.71574235,0.20365871,0.20365871
2463247349,2,4.291302,-2.660442,8.180578,0.71574235,0.20365871,0.20365871
2463247344,2,4.291302,-2.660442,8.180578,0.44940528,0.3612618,0.3612618
2463247354,2,4.291302,-2.660442,8.180578,0.16718578,0.62210107,0.62210107
2463247358,2,3.4078798,-3.2326317,6.8997355,0.16718578,0.62210107,0.62210107
2463247363,2,3.4078798,-3.2326317,6.8997355,-0.1186989,0.94463766,0.94463766
2463247368,2,2.9577892,-3.4217656,5.458488,-0.1186989,0.94463766,0.94463766
2463247373,2,2.9577892,-3.4217656,5.458488,-0.36609912,1.2690067,1.2690067
2463247378,2,2.9482126,-3.7306042,4.041182,-0.36609912,1.2690067,1.2690067
2463247382,2,2.9482126,-3.7306042,4.041182,-0.5194261,1.5567241,1.5567241
2463247387,2,3.2785985,-4.7265496,2.7507625,-0.5194261,1.5567241,1.5567241
2463247392,2,3.2785985,-4.7265496,2.7507625,-0.5676844,1.8108437,1.8108437
2463247397,2,4.6935105,-5.5908194,1.9319808,-0.5676844,1.8108437,1.8108437
2463247407,2,6.5345726,-6.23962,1.8003054,-0.5676844,1.8108437,1.8108437
2463247402,2,6.5345726,-6.23962,1.8003054,-0.47238958,1.9733338,1.9733338
2463247416,2,8.095525,-6.6897106,1.9511335,-0.47238958,1.9733338,1.9733338
2463247411,2,8.095525,-6.6897106,1.9511335,-0.17428759,2.0148726,2.0148726
2463247426,2,8.96219,-6.9746084,2.0133803,-0.17428759,2.0148726,2.0148726
2463247421,2,8.96219,-6.9746084,2.0133803,0.29546738,1.9598948,1.9598948
2463247431,2,8.96219,-6.9746084,2.0133803,0.8739563,1.8700976,1.8700976
2463247435,2,9.678024,-6.7950506,1.3980968,0.8739563,1.8700976,1.8700976
2463247440,2,9.678024,-6.7950506,1.3980968,1.4548886,1.765029,1.765029
2463247445,2,10.458501,-5.997816,0.124436215,1.4548886,1.765029,1.765029
2463247450,2,10.458501,-5.997816,0.124436215,1.9313631,1.6049824,1.6049824
2463247455,2,10.664393,-4.889348,-1.5227038,1.9313631,1.6049824,1.6049824
2463247459,2,10.664393,-4.889348,-1.5227038,2.2587867,1.3905689,1.3905689
2463247464,2,11.267706,-3.9628317,-3.8210385,2.2587867,1.3905689,1.3905689
2463247469,2,11.267706,-3.9628317,-3.8210385,2.3986747,1.0900234,1.0900234
2463247474,2,11.634004,-3.1201088,-6.52637,2.3986747,1.0900234,1.0900234
2463247479,2,11.634004,-3.1201088,-6.52637,2.2685604,0.6929614,0.6929614
2463247484,2,10.9875965,-2.8208468,-9.267613,2.2685604,0.6929614,0.6929614
2463247493,2,9.984469,-3.0075865,-11.156557,2.2685604,0.6929614,0.6929614
2463247488,2,9.984469,-3.0075865,-11.156557,1.7878098,0.31544694,0.31544694
2463247503,2,8.859243,-3.555835,-11.386391,1.7878098,0.31544694,0.31544694
2463247498,2,8.859243,-3.555835,-11.386391,0.92893416,0.028951406,0.028951406
2463247508,2,8.859243,-3.555835,-11.386391,-0.22865455,-0.13048428,-0.13048428
2463247512,2,7.6478286,-4.611633,-9.384924,-0.22865455,-0.13048428,-0.13048428
2463247517,2,7.6478286,-4.611633,-9.384924,-1.4699317,-0.12620823,-0.12620823
2463247522,2,6.912841,-5.231704,-5.6118245,-1.4699317,-0.12620823,-0.12620823
2463247527,2,6.912841,-5.231704,-5.6118245,-2.5084016,-0.037021983,-0.037021983
2463247532,2,5.311188,-4.3075824,2.4131947,-2.5084016,-0.037021983,-0.037021983
2463247536,2,5.311188,-4.3075824,2.4131947,-3.0166411,0.14562656,0.14562656
2463247541,2,4.724634,-3.649205,6.3610635,-3.0166411,0.14562656,0.14562656
2463247546,2,4.724634,-3.649205,6.3610635,-2.9353962,0.49687377,0.49687377
2463247551,2,6.7596183,-2.9309752,8.527723,-2.9353962,0.49687377,0.49687377
2463247560,2,11.1575775,-0.59672904,7.8932867,-2.9353962,0.49687377,0.49687377
2463247556,2,11.1575775,-0.59672904,7.8932867,-2.4693062,0.7430523,0.7430523
2463247570,2,14.250753,2.3288598,5.355542,-2.4693062,0.7430523,0.7430523
2463247565,2,14.250753,2.3288598,5.355542,-1.95618,0.5487973,0.5487973
2463247575,2,14.250753,2.3288598,5.355542,-1.7655902,0.026507948,0.026507948
2463247580,2,15.330491,5.079679,4.4362082,-1.7655902,0.026507948,0.026507948
2463247585,2,15.330491,5.079679,4.4362082,-2.0160446,-0.55503523,-0.55503523
2463247589,2,14.566774,4.576918,5.650016,-2.0160446,-0.55503523,-0.55503523
2463247594,2,14.566774,4.576918,5.650016,-2.6904395,-0.92766273,-0.92766273
2463247599,2,13.458306,2.573058,8.11115,-2.6904395,-0.92766273,-0.92766273
2463247604,2,13.458306,2.573058,8.11115,-3.7111943,-1.0467814,-1.0467814
2463247609,2,12.888512,1.3568556,12.126053,-3.7111943,-1.0467814,-1.0467814
2463247613,2,12.888512,1.3568556,12.126053,-4.81014,-1.0663291,-1.0663291
2463247618,2,12.096065,-0.06523909,18.441685,-4.81014,-1.0663291,-1.0663291
2463247623,2,12.096065,-0.06523909,18.441685,-5.556617,-1.080379,-1.080379
2463247628,2,10.190361,-0.12509155,25.698198,-5.556617,-1.080379,-1.080379
2463247633,2,10.190361,-0.12509155,25.698198,-5.662907,-1.1042026,-1.1042026
2463247637,2,8.277477,1.8021579,29.08106,-5.662907,-1.1042026,-1.1042026
2463247642,2,8.277477,1.8021579,29.08106,-5.157111,-1.202552,-1.202552
2463247647,2,6.9248114,4.4117255,27.041288,-5.157111,-1.202552,-1.202552
2463247652,2,6.9248114,4.4117255,27.041288,-4.406969,-1.4139111,-1.4139111
2463247657,2,4.614506,5.680598,24.075,-4.406969,-1.4139111,-1.4139111
2463247662,2,4.614506,5.680598,24.075,-3.758231,-1.5617404,-1.5617404
2463247666,2,2.7686553,6.315034,21.898766,-3.758231,-1.5617404,-1.5617404
2463247676,2,1.9714205,6.243211,20.06728,-3.758231,-1.5617404,-1.5617404
2463247671,2,1.9714205,6.243211,20.06728,-3.3544493,-1.5715142,-1.5715142
2463247681,2,1.9714205,6.243211,20.06728,-3.161416,-1.5134821,-1.5134821
2463247686,2,1.4734478,5.9439487,19.32511,-3.161416,-1.5134821,-1.5134821
2463247690,2,1.4734478,5.9439487,19.32511,-3.0203063,-1.4462869,-1.4462869
2463247695,2,1.1191212,6.003801,19.432842,-3.0203063,-1.4462869,-1.4462869
2463247705,2,0.87252915,6.3581276,19.933208,-3.0203063,-1.4462869,-1.4462869
2463247700,2,0.87252915,6.3581276,19.933208,-2.7924538,-1.423685,-1.423685
2463247710,2,0.87252915,6.3581276,19.933208,-2.4179938,-1.4835497,-1.4835497
2463247714,2,0.10402343,6.7890654,19.799139,-2.4179938,-1.4835497,-1.4835497
2463247724,2,-1.6149396,7.1625447,17.594175,-2.4179938,-1.4835497,-1.4835497
2463247719,2,-1.6149396,7.1625447,17.594175,-1.8859305,-1.5965596,-1.5965596
2463247734,2,-3.8486335,7.2918262,14.781109,-1.8859305,-1.5965596,-1.5965596
2463247729,2,-3.8486335,7.2918262,14.781109,-1.3043873,-1.6820807,-1.6820807
2463247738,2,-3.8486335,7.2918262,14.781109,-0.75155467,-1.6619222,-1.6619222
2463247743,2,-5.9123464,7.28225,12.406163,-0.75155467,-1.6619222,-1.6619222
2463247748,2,-5.9123464,7.28225,12.406163,-0.2573652,-1.5098169,-1.5098169
2463247753,2,-7.2817707,6.985381,10.313721,-0.2573652,-1.5098169,-1.5098169
2463247758,2,-7.2817707,6.985381,10.313721,0.16229887,-1.2501993,-1.2501993
2463247763,2,-7.4828753,6.8273706,8.625881,0.16229887,-1.2501993,-1.2501993
2463247767,2,-7.4828753,6.8273706,8.625881,0.50682664,-0.9673689,-0.9673689
2463247772,2,-7.1357307,7.097904,7.2301216,0.50682664,-0.9673689,-0.9673689
2463247777,2,-7.1357307,7.097904,7.2301216,0.7236836,-0.7169144,-0.7169144
2463247782,2,-6.343284,7.6006646,6.0713773,0.7236836,-0.7169144,-0.7169144
2463247791,2,-5.191723,7.9214745,5.6835337,0.7236836,-0.7169144,-0.7169144
2463247787,2,-5.191723,7.9214745,5.6835337,0.7633898,-0.53915274,-0.53915274
2463247796,2,-5.191723,7.9214745,5.6835337,0.7047468,-0.475012,-0.475012
2463247801,2,-4.404064,8.04118,5.846332,0.7047468,-0.475012,-0.475012
2463247811,2,-4.918795,7.3851957,6.906918,0.7047468,-0.475012,-0.475012
2463247806,2,-4.918795,7.3851957,6.906918,0.6461038,-0.5000574,-0.5000574
2463247815,2,-4.918795,7.3851957,6.906918,0.64854723,-0.48539668,-0.48539668
2463247820,2,-5.4287386,6.2096934,8.532511,0.64854723,-0.48539668,-0.48539668
2463247825,2,-5.4287386,6.2096934,8.532511,0.7255162,-0.39132354,-0.39132354
2463247830,2,-6.0200806,4.8881507,10.993645,0.7255162,-0.39132354,-0.39132354
2463247840,2,-6.4318657,3.69589,13.842622,0.7255162,-0.39132354,-0.39132354
2463247835,2,-6.4318657,3.69589,13.842622,0.902667,-0.21600536,-0.21600536
2463247844,2,-6.4318657,3.69589,13.842622,1.1738908,0.05277513,0.05277513
2463247849,2,-5.5819607,2.9058375,17.156055,1.1738908,0.05277513,0.05277513
2463247854,2,-5.5819607,2.9058375,17.156055,1.5092555,0.35026625,0.35026625
2463247859,2,-3.590071,2.359983,21.00337,1.5092555,0.35026625,0.35026625
2463247868,2,-1.7442207,1.6872413,23.98642,1.5092555,0.35026625,0.35026625
2463247864,2,-1.7442207,1.6872413,23.98642,1.9570194,0.577508,0.577508
2463247873,2,-1.7442207,1.6872413,23.98642,2.523902,0.73450017,0.73450017
2463247878,2,-0.12341593,1.3448852,25.15474,2.523902,0.73450017,0.73450017
2463247883,2,-0.12341593,1.3448852,25.15474,3.1390426,0.83101684,0.83101684
2463247888,2,0.9970223,1.6393594,24.589731,3.1390426,0.83101684,0.83101684
2463247892,2,0.9970223,1.6393594,24.589731,3.7718985,0.8487319,0.8487319
2463247897,2,1.13588,3.7605307,20.467093,3.7718985,0.8487319,0.8487319
2463247902,2,1.13588,3.7605307,20.467093,4.225771,0.7723738,0.7723738
2463247907,2,1.0568748,7.0572042,15.283869,4.225771,0.7723738,0.7723738
2463247912,2,1.0568748,7.0572042,15.283869,4.248373,0.57567537,0.57567537
2463247917,2,0.61396646,9.638042,14.656616,4.248373,0.57567537,0.57567537
2463247921,2,0.61396646,9.638042,14.656616,3.8769672,0.3319403,0.3319403
2463247926,2,0.6235429,10.329938,18.30283,3.8769672,0.3319403,0.3319403
2463247931,2,0.6235429,10.329938,18.30283,3.3308542,0.14073965,0.14073965
2463247936,2,1.8373508,9.168799,22.645723,3.3308542,0.14073965,0.14073965
2463247941,2,1.8373508,9.168799,22.645723,2.7658043,0.02162103,0.02162103
2463247945,2,3.295357,6.8058243,26.117167,2.7658043,0.02162103,0.02162103
2463247950,2,3.295357,6.8058243,26.117167,2.2850537,0.018566705,0.018566705
2463247955,2,6.5752726,4.766052,27.330975,2.2850537,0.018566705,0.018566705
2463247960,2,6.5752726,4.766052,27.330975,1.8800504,-0.032135066,-0.032135066
2463247965,2,10.257396,2.599393,26.758785,1.8800504,-0.032135066,-0.032135066
2463247969,2,10.257396,2.599393,26.758785,1.5727855,-0.28503308,-0.28503308
2463247974,2,11.210248,0.39921606,25.181072,1.5727855,-0.28503308,-0.28503308
2463247979,2,11.210248,0.39921606,25.181072,1.4451147,-0.59107625,-0.59107625
2463247984,2,10.657211,-1.4274812,22.329702,1.4451147,-0.59107625,-0.59107625
2463247989,2,10.657211,-1.4274812,22.329702,1.5336902,-0.8757392,-0.8757392
2463247993,2,8.792209,-3.0578625,18.733765,1.5336902,-0.8757392,-0.8757392
2463248003,2,5.7038207,-4.932442,14.840961,1.5336902,-0.8757392,-0.8757392
2463247998,2,5.7038207,-4.932442,14.840961,1.7688731,-1.084655,-1.084655
2463248013,2,2.9170895,-6.7711096,10.883516,1.7688731,-1.084655,-1.084655
2463248008,2,2.9170895,-6.7711096,10.883516,2.0303233,-1.0883203,-1.0883203
2463248022,2,-0.7147584,-7.3504815,7.9339867,2.0303233,-1.0883203,-1.0883203
2463248018,2,-0.7147584,-7.3504815,7.9339867,2.2514563,-0.86107844,-0.86107844
2463248027,2,-0.7147584,-7.3504815,7.9339867,2.4365482,-0.34611952,-0.34611952
2463248032,2,-2.6563725,-7.7287493,4.4266315,2.4365482,-0.34611952,-0.34611952
2463248042,2,-1.8256202,-7.8005724,1.0533465,2.4365482,-0.34611952,-0.34611952
2463248037,2,-1.8256202,-7.8005724,1.0533465,2.5361192,0.387529,0.387529
2463248046,2,-1.8256202,-7.8005724,1.0533465,2.5025215,1.1040733,1.1040733
2463248051,2,0.11120576,-7.999283,-1.5945266,2.5025215,1.1040733,1.1040733
2463248061,2,1.5021771,-7.968159,-3.7659743,2.5025215,1.1040733,1.1040733
2463248056,2,1.5021771,-7.968159,-3.7659743,2.3436968,1.6935577,1.6935577
2463248070,2,2.0767608,-8.140534,-5.7099824,2.3436968,1.6935577,1.6935577
2463248066,2,2.0767608,-8.140534,-5.7099824,2.0932422,2.1730866,2.1730866
2463248075,2,2.0767608,-8.140534,-5.7099824,1.7810904,2.608633,2.608633
2463248080,2,2.5460043,-8.166869,-6.8280263,1.7810904,2.608633,2.608633
2463248085,2,2.5460043,-8.166869,-6.8280263,1.4609972,3.0173016,3.0173016
2463248090,2,4.166809,-7.9083066,-7.153624,1.4609972,3.0173016,3.0173016
2463248099,2,7.188162,-7.5228567,-6.816056,1.4609972,3.0173016,3.0173016
2463248095,2,7.188162,-7.5228567,-6.816056,1.1867191,3.3642728,3.3642728
2463248109,2,10.322037,-7.146983,-6.471306,1.1867191,3.3642728,3.3642728
2463248104,2,10.322037,-7.146983,-6.471306,1.0083466,3.5206542,3.5206542
2463248119,2,12.328292,-6.807021,-6.543129,1.0083466,3.5206542,3.5206542
2463248114,2,12.328292,-6.807021,-6.543129,0.91182995,3.430857,3.430857
2463248123,2,12.328292,-6.807021,-6.543129,0.8232546,3.1468048,3.1468048
2463248128,2,12.258863,-5.9212046,-5.6166124,0.8232546,3.1468048,3.1468048
2463248133,2,12.258863,-5.9212046,-5.6166124,0.7114663,2.7961686,2.7961686
2463248138,2,11.76089,-4.24773,-6.397089,0.7114663,2.7961686,2.7961686
2463248143,2,11.76089,-4.24773,-6.397089,0.5019397,2.460193,2.460193
2463248147,2,11.492751,-3.0650446,-6.916608,0.5019397,2.460193,2.460193
2463248152,2,11.492751,-3.0650446,-6.916608,0.18001395,2.1003935,2.1003935
2463248157,2,11.308406,-2.4353967,-7.634838,0.18001395,2.1003935,2.1003935
2463248162,2,11.308406,-2.4353967,-7.634838,-0.27019334,1.7112728,1.7112728
2463248167,2,11.066602,-2.2558393,-8.125628,-0.27019334,1.7112728,1.7112728
2463248171,2,11.066602,-2.2558393,-8.125628,-0.8413518,1.3135998,1.3135998
2463248176,2,9.922222,-2.5742545,-7.8239713,-0.8413518,1.3135998,1.3135998
2463248181,2,9.922222,-2.5742545,-7.8239713,-1.4601579,0.9996155,0.9996155
2463248186,2,7.9183626,-2.8376055,-6.430606,-1.4601579,0.9996155,0.9996155
2463248191,2,7.9183626,-2.8376055,-6.430606,-2.0197098,0.8695013,0.8695013
2463248196,2,6.3837447,-2.8615465,-4.1059365,-2.0197098,0.8695013,0.8695013
2463248200,2,6.3837447,-2.8615465,-4.1059365,-2.4369304,0.90859663,0.90859663
2463248205,2,5.93126,-2.5574958,-1.5969207,-2.4369304,0.90859663,0.90859663
2463248210,2,5.93126,-2.5574958,-1.5969207,-2.6837199,1.0490955,1.0490955
2463248215,2,6.18264,-2.100223,1.5704719,-2.6837199,1.0490955,1.0490955
2463248220,2,6.18264,-2.100223,1.5704719,-2.6947155,1.3081021,1.3081021
2463248224,2,8.813755,-0.72361624,4.1513104,-2.6947155,1.3081021,1.3081021
2463248234,2,14.54044,1.9888976,3.9789352,-2.6947155,1.3081021,1.3081021
2463248229,2,14.54044,1.9888976,3.9789352,-2.5285602,1.5237373,1.5237373
2463248239,2,14.54044,1.9888976,3.9789352,-2.4693062,1.3398671,1.3398671
2463248244,2,19.498617,4.9336386,3.2056413,-2.4693062,1.3398671,1.3398671
2463248248,2,19.498617,4.9336386,3.2056413,-2.764354,0.73205674,0.73205674
2463248253,2,21.169699,6.609508,3.3828049,-2.764354,0.73205674,0.73205674
2463248263,2,20.149813,5.2520537,5.843938,-2.764354,0.73205674,0.73205674
2463248258,2,20.149813,5.2520537,5.843938,-3.5089982,0.05277513,0.05277513
2463248268,2,20.149813,5.2520537,5.843938,-4.6189394,-0.40292996,-0.40292996
2463248273,2,18.742083,2.5826342,10.234715,-4.6189394,-0.40292996,-0.40292996
2463248282,2,16.94172,-0.63982284,16.705965,-4.6189394,-0.40292996,-0.40292996
2463248277,2,16.94172,-0.63982284,16.705965,-5.8266187,-0.6839277,-0.6839277
2463248287,2,16.94172,-0.63982284,16.705965,-6.706264,-0.8763501,-0.8763501
2463248292,2,13.901216,-3.0482862,24.771683,-6.706264,-0.8763501,-0.8763501
2463248297,2,13.901216,-3.0482862,24.771683,-6.8443193,-1.0315098,-1.0315098
2463248301,2,9.0795,-3.512741,29.782532,-6.8443193,-1.0315098,-1.0315098
2463248306,2,9.0795,-3.512741,29.782532,-6.1406035,-1.0498357,-1.0498357
2463248311,2,4.5378947,-1.7339258,29.255829,-6.1406035,-1.0498357,-1.0498357
2463248321,2,2.1821012,0.5332856,25.02067,-6.1406035,-1.0498357,-1.0498357
2463248316,2,2.1821012,0.5332856,25.02067,-4.9292583,-0.8739066,-0.8739066
2463248325,2,2.1821012,0.5332856,25.02067,-3.6849272,-0.5623656,-0.5623656
2463248330,2,2.7231674,2.4725056,20.086432,-3.6849272,-0.5623656,-0.5623656
2463248335,2,2.7231674,2.4725056,20.086432,-2.7692409,-0.29847208,-0.29847208
2463248340,2,5.488352,3.6360376,16.603018,-2.7692409,-0.29847208,-0.29847208
2463248345,2,5.488352,3.6360376,16.603018,-2.3129249,-0.19829027,-0.19829027
2463248349,2,8.1865015,4.7181697,16.06674,-2.3129249,-0.19829027,-0.19829027
2463248359,2,10.003622,5.8457904,16.35882,-2.3129249,-0.19829027,-0.19829027
2463248354,2,10.003622,5.8457904,16.35882,-2.158987,-0.2465486,-0.2465486
2463248364,2,10.003622,5.8457904,16.35882,-2.2054129,-0.40415168,-0.40415168
2463248369,2,10.441742,6.631055,17.278152,-2.2054129,-0.40415168,-0.40415168
2463248374,2,10.441742,6.631055,17.278152,-2.3599615,-0.63933456,-0.63933456
2463248378,2,9.242298,7.8185277,18.547028,-2.3599615,-0.63933456,-0.63933456
2463248383,2,9.242298,7.8185277,18.547028,-2.5419993,-0.8873457,-0.8873457
2463248388,2,7.5640354,8.436206,19.236526,-2.5419993,-0.8873457,-0.8873457
2463248393,2,7.5640354,8.436206,19.236526,-2.5994205,-1.1628457,-1.1628457
2463248398,2,5.2752767,9.022759,18.736158,-2.5994205,-1.1628457,-1.1628457
2463248402,2,5.2752767,9.022759,18.736158,-2.453424,-1.4542282,-1.4542282
2463248407,2,2.7925963,8.912631,17.292519,-2.453424,-1.4542282,-1.4542282
2463248412,2,2.7925963,8.912631,17.292519,-2.1076744,-1.7169,-1.7169
2463248417,2,0.11120576,8.931784,16.787363,-2.1076744,-1.7169,-1.7169
2463248426,2,-3.4176958,9.171194,16.210386,-2.1076744,-1.7169,-1.7169
2463248422,2,-3.4176958,9.171194,16.210386,-1.5517875,-1.8891639,-1.8891639
2463248431,2,-3.4176958,9.171194,16.210386,-0.84746045,-1.8317425,-1.8317425
2463248436,2,-5.7088485,9.044307,14.826597,-0.84746045,-1.8317425,-1.8317425
2463248441,2,-5.7088485,9.044307,14.826597,-0.1687898,-1.5959488,-1.5959488
2463248446,2,-6.43426,9.489609,12.805977,-0.1687898,-1.5959488,-1.5959488
2463248455,2,-5.9554405,10.186292,10.433425,-0.1687898,-1.5959488,-1.5959488
2463248451,2,-5.9554405,10.186292,10.433425,0.34250396,-1.3131185,-1.3131185
2463248460,2,-5.9554405,10.186292,10.433425,0.6076193,-1.0681617,-1.0681617
2463248465,2,-4.813455,10.677082,9.1861,0.6076193,-1.0681617,-1.0681617
2463248470,2,-4.813455,10.677082,9.1861,0.64854723,-0.9001738,-0.9001738
2463248475,2,-3.7432933,10.777634,9.8756,0.64854723,-0.9001738,-0.9001738
2463248479,2,-3.7432933,10.777634,9.8756,0.5807413,-0.7951051,-0.7951051
2463248484,2,-3.0897043,10.423307,12.396586,0.5807413,-0.7951051,-0.7951051
2463248494,2,-2.5318792,9.508761,15.475397,0.5807413,-0.7951051,-0.7951051
2463248489,2,-2.5318792,9.508761,15.475397,0.57402176,-0.6991993,-0.6991993
2463248503,2,-1.7801323,8.273407,18.661943,0.57402176,-0.6991993,-0.6991993
2463248499,2,-1.7801323,8.273407,18.661943,0.70230335,-0.58802193,-0.58802193
2463248508,2,-1.7801323,8.273407,18.661943,1.0034596,-0.47256854,-0.47256854
2463248513,2,-0.84882784,7.0907216,21.530073,1.0034596,-0.47256854,-0.47256854
2463248523,2,0.10641754,6.0804124,23.591393,1.0034596,-0.47256854,-0.47256854
2463248518,2,0.10641754,6.0804124,23.591393,1.5049795,-0.36322376,-0.36322376
2463248532,2,0.78394747,5.1850195,24.795624,1.5049795,-0.36322376,-0.36322376
2463248528,2,0.78394747,5.1850195,24.795624,2.1922023,-0.27525923,-0.27525923
2463248537,2,0.78394747,5.1850195,24.795624,2.997322,-0.1909599,-0.1909599
2463248542,2,2.1653426,4.251321,24.733377,2.997322,-0.1909599,-0.1909599
2463248552,2,3.9896457,3.7294075,22.360825,2.997322,-0.1909599,-0.1909599
2463248547,2,3.9896457,3.7294075,22.360825,3.8397045,-0.1475885,-0.1475885
2463248556,2,3.9896457,3.7294075,22.360825,4.5501404,-0.19401422,-0.19401422
2463248561,2,5.007138,4.2489266,18.733765,4.5501404,-0.19401422,-0.19401422
2463248571,2,5.6272097,4.8450575,16.219961,4.5501404,-0.19401422,-0.19401422
2463248566,2,5.6272097,4.8450575,16.219961,4.936207,-0.28197876,-0.28197876
2463248576,2,5.6272097,4.8450575,16.219961,4.9374285,-0.34795213,-0.34795213
2463248580,2,6.639913,5.0126443,17.129719,4.9374285,-0.34795213,-0.34795213
2463248590,2,9.132171,4.660712,20.388088,4.9374285,-0.34795213,-0.34795213
2463248585,2,9.132171,4.660712,20.388088,4.6527653,-0.35833684,-0.35833684
2463248600,2,12.486302,3.3750808,22.46856,4.6527653,-0.35833684,-0.35833684
2463248595,2,12.486302,3.3750808,22.46856,4.283192,-0.39804304,-0.39804304
2463248609,2,14.588322,1.8715868,22.71994,4.283192,-0.39804304,-0.39804304
2463248604,2,14.588322,1.8715868,22.71994,3.9215603,-0.5538135,-0.5538135
2463248619,2,13.386483,0.3297872,21.103924,3.9215603,-0.5538135,-0.5538135
2463248614,2,13.386483,0.3297872,21.103924,3.616128,-0.8219831,-0.8219831
2463248624,2,13.386483,0.3297872,21.103924,3.3968275,-1.0027992,-1.0027992
2463248629,2,10.707487,-0.7762864,17.701908,3.3968275,-1.0027992,-1.0027992
2463248633,2,10.707487,-0.7762864,17.701908,3.1359882,-0.9832514,-0.9832514
2463248638,2,9.113017,-1.4250871,14.321442,3.1359882,-0.9832514,-0.9832514
2463248643,2,9.113017,-1.4250871,14.321442,2.76275,-0.86291105,-0.86291105
2463248648,2,7.947091,-1.5040923,12.322369,2.76275,-0.86291105,-0.86291105
2463248653,2,7.947091,-1.5040923,12.322369,2.355914,-0.73157513,-0.73157513
2463248657,2,6.6063957,-1.832084,11.307271,2.355914,-0.73157513,-0.73157513
2463248662,2,6.6063957,-1.832084,11.307271,1.9777888,-0.5648091,-0.5648091
2463248667,2,5.4069524,-2.4689143,10.44779,1.9777888,-0.5648091,-0.5648091
2463248672,2,5.4069524,-2.4689143,10.44779,1.6735781,-0.35955855,-0.35955855
2463248677,2,4.415796,-3.0626507,9.190888,1.6735781,-0.35955855,-0.35955855
2463248681,2,4.415796,-3.0626507,9.190888,1.4585538,-0.13781467,-0.13781467
2463248686,2,3.4437912,-3.457677,7.3354616,1.4585538,-0.13781467,-0.13781467
2463248696,2,2.5292454,-3.6108992,4.915028,1.4585538,-0.13781467,-0.13781467
2463248691,2,2.5292454,-3.6108992,4.915028,1.3296614,0.08759441,0.08759441
2463248706,2,1.4949949,-3.7401807,1.9990156,1.3296614,0.08759441,0.08759441
2463248701,2,1.4949949,-3.7401807,1.9990156,1.2484163,0.30322966,0.30322966
2463248710,2,1.4949949,-3.7401807,1.9990156,1.1451802,0.5310822,0.5310822
2463248715,2,0.68339527,-3.991561,-0.68476915,1.1451802,0.5310822,0.5310822
2463248720,2,0.68339527,-3.991561,-0.68476915,0.96192086,0.7913106,0.7913106
2463248725,2,0.6905776,-4.4608045,-2.7149649,0.96192086,0.7913106,0.7913106
2463248730,2,0.6905776,-4.4608045,-2.7149649,0.6809231,1.0686431,1.0686431
2463248734,2,1.8062277,-4.9707475,-3.4116476,0.6809231,1.0686431,1.0686431
2463248739,2,1.8062277,-4.9707475,-3.4116476,0.35655385,1.3068804,1.3068804
2463248744,2,4.0135865,-5.248463,-2.9447982,0.35655385,1.3068804,1.3068804
2463248749,2,4.0135865,-5.248463,-2.9447982,0.0908277,1.4241664,1.4241664
2463248754,2,6.3669863,-5.574061,-2.2409334,0.0908277,1.4241664,1.4241664
2463248758,2,6.3669863,-5.574061,-2.2409334,-0.06616453,1.389958,1.389958
2463248763,2,7.8632975,-5.9547224,-1.5203096,-0.06616453,1.389958,1.389958
2463248768,2,7.8632975,-5.9547224,-1.5203096,-0.08449048,1.2659525,1.2659525
2463248773,2,8.375635,-6.265955,-1.2928703,-0.08449048,1.2659525,1.2659525
2463248778,2,8.375635,-6.265955,-1.2928703,0.02668691,1.1132363,1.1132363
2463248782,2,8.040462,-6.1390676,-1.9823706,0.02668691,1.1132363,1.1132363
2463248787,2,8.040462,-6.1390676,-1.9823706,0.20872459,0.97395915,0.97395915
2463248792,2,7.5377,-5.6530657,-3.5792346,0.20872459,0.97395915,0.97395915
2463248797,2,7.5377,-5.6530657,-3.5792346,0.38770795,0.8566731,0.8566731
2463248802,2,7.250408,-5.4280205,-5.4993014,0.38770795,0.8566731,0.8566731
2463248811,2,7.0205746,-5.296345,-7.2350235,0.38770795,0.8566731,0.8566731
2463248807,2,7.0205746,-5.296345,-7.2350235,0.48178113,0.76259995,0.76259995
2463248816,2,7.0205746,-5.296345,-7.2350235,0.41702947,0.6941831,0.6941831
2463248821,2,7.374902,-5.4543557,-8.657118,0.41702947,0.6941831,0.6941831
2463248826,2,7.374902,-5.4543557,-8.657118,0.16474234,0.6318749,0.6318749
2463248831,2,8.224806,-5.885293,-9.712916,0.16474234,0.6318749,0.6318749
2463248835,2,8.224806,-5.885293,-9.712916,-0.30989957,0.52558446,0.52558446
2463248840,2,8.75869,-6.263561,-9.868532,-0.30989957,0.52558446,0.52558446
2463248850,2,8.229595,-6.491,-8.5709305,-0.30989957,0.52558446,0.52558446
2463248845,2,8.229595,-6.491,-8.5709305,-0.97390944,0.39363763,0.39363763
2463248855,2,8.229595,-6.491,-8.5709305,-1.6470824,0.34660107,0.34660107
2463248859,2,7.042122,-6.749563,-6.471306,-1.6470824,0.34660107,0.34660107
2463248864,2,7.042122,-6.749563,-6.471306,-2.1650958,0.46633053,0.46633053
2463248869,2,6.6303368,-7.060796,-4.261553,-2.1650958,0.46633053,0.46633053
2463248874,2,6.6303368,-7.060796,-4.261553,-2.479691,0.6923505,0.6923505
2463248879,2,6.9487524,-6.886027,-1.505945,-2.479691,0.6923505,0.6923505
2463248888,2,9.180052,-5.6746125,0.119648024,-2.479691,0.6923505,0.6923505
2463248884,2,9.180052,-5.6746125,0.119648024,-2.5713208,0.9788461,0.9788461
2463248893,2,9.180052,-5.6746125,0.119648024,-2.50718,1.2024225,1.2024225
2463248898,2,13.288325,-3.5414705,-0.5890052,-2.50718,1.2024225,1.2024225
2463248903,2,13.288325,-3.5414705,-0.5890052,-2.5584927,1.1217884,1.1217884
2463248908,2,16.237854,-1.0875192,-2.1212285,-2.5584927,1.1217884,1.1217884
2463248912,2,16.237854,-1.0875192,-2.1212285,-2.9903738,0.76565427,0.76565427
2463248917,2,16.221096,0.3178167,-1.747749,-2.9903738,0.76565427,0.76565427
2463248922,2,16.221096,0.3178167,-1.747749,-3.8101544,0.43028954,0.43028954
2463248927,2,15.20121,0.2627524,0.2202002,-3.8101544,0.43028954,0.43028954
2463248936,2,14.856461,-0.88641495,4.168069,-3.8101544,0.43028954,0.43028954
2463248932,2,14.856461,-0.88641495,4.168069,-4.915209,0.2781842,0.2781842
2463248941,2,14.856461,-0.88641495,4.168069,-6.1436577,0.24641924,0.24641924
2463248946,2,14.624232,-2.6700184,12.111689,-6.1436577,0.24641924,0.24641924
2463248956,2,14.530862,-3.7928507,23.280159,-6.1436577,0.24641924,0.24641924
2463248951,2,14.530862,-3.7928507,23.280159,-7.1473083,0.28123853,0.28123853
2463248965,2,13.831786,-3.3044548,35.619343,-7.1473083,0.28123853,0.28123853
2463248961,2,13.831786,-3.3044548,35.619343,-7.5352073,0.29712102,0.29712102
2463248970,2,13.831786,-3.3044548,35.619343,-6.972601,0.22442812,0.22442812
2463248975,2,13.321843,-0.2136732,43.416924,-6.972601,0.22442812,0.22442812
2463248980,2,13.321843,-0.2136732,43.416924,-5.4570456,-0.038243715,-0.038243715
2463248985,2,12.249287,3.592944,41.132954,-5.4570456,-0.038243715,-0.038243715
2463248994,2,8.806572,6.456286,32.96429,-5.4570456,-0.038243715,-0.038243715
2463248989,2,8.806572,6.456286,32.96429,-3.6391122,-0.46035123,-0.46035123
2463248999,2,8.806572,6.456286,32.96429,-2.2927663,-0.7981594,-0.7981594
2463249004,2,5.1268425,8.630128,25.370207,-2.2927663,-0.7981594,-0.7981594
2463249009,2,5.1268425,8.630128,25.370207,-1.6275347,-0.9050607,-0.9050607
2463249013,2,3.0224297,9.987582,19.490301,-1.6275347,-0.9050607,-0.9050607
2463249023,2,2.3329294,10.145592,16.72751,-1.6275347,-0.9050607,-0.9050607
2463249018,2,2.3329294,10.145592,16.72751,-1.5010858,-0.8421417,-0.8421417
2463249028,2,2.3329294,10.145592,16.72751,-1.635476,-0.7291317,-0.7291317
2463249033,2,2.3664467,9.80563,16.37079,-1.635476,-0.7291317,-0.7291317
2463249037,2,2.3664467,9.80563,16.37079,-1.7472643,-0.64116716,-0.64116716
2463249042,2,3.0942528,9.798448,18.025112,-1.7472643,-0.64116716,-0.64116716
2463249047,2,3.0942528,9.798448,18.025112,-1.7277166,-0.6112348,-0.6112348
2463249052,2,4.4493127,10.167139,20.198956,-1.7277166,-0.6112348,-0.6112348
2463249057,2,4.4493127,10.167139,20.198956,-1.5829417,-0.6924798,-0.6924798
2463249062,2,5.327947,10.739328,20.632286,-1.5829417,-0.6924798,-0.6924798
2463249071,2,5.0765667,11.14393,19.748863,-1.5829417,-0.6924798,-0.6924798
2463249066,2,5.0765667,11.14393,19.748863,-1.3440936,-0.8891782,-0.8891782
2463249076,2,5.0765667,11.14393,19.748863,-1.0240004,-1.1170309,-1.1170309
2463249081,2,4.478042,11.28997,18.003565,-1.0240004,-1.1170309,-1.1170309
2463249086,2,4.478042,11.28997,18.003565,-0.66725534,-1.3259466,-1.3259466
2463249090,2,3.6712306,11.043379,16.109835,-0.66725534,-1.3259466,-1.3259466
2463249095,2,3.6712306,11.043379,16.109835,-0.30623436,-1.5263102,-1.5263102
2463249100,2,1.794257,10.432884,14.462694,-0.30623436,-1.5263102,-1.5263102
2463249105,2,1.794257,10.432884,14.462694,0.08838424,-1.6570352,-1.6570352
2463249110,2,-0.45619568,9.70029,12.226605,0.08838424,-1.6570352,-1.6570352
2463249114,2,-0.45619568,9.70029,12.226605,0.52209824,-1.685746,-1.685746
2463249119,2,-2.6372194,8.9413595,9.490151,0.52209824,-1.685746,-1.685746
2463249124,2,-2.6372194,8.9413595,9.490151,0.9545905,-1.6191616,-1.6191616
2463249129,2,-4.7847257,8.1560955,6.7800307,0.9545905,-1.6191616,-1.6191616
2463249139,2,-6.6664877,7.4929304,4.5535192,0.9545905,-1.6191616,-1.6191616
2463249134,2,-6.6664877,7.4929304,4.5535192,1.322331,-1.4444543,-1.4444543
2463249143,2,-6.6664877,7.4929304,4.5535192,1.5422423,-1.1292481,-1.1292481
2463249148,2,-7.3895054,7.248732,3.4761746,1.5422423,-1.1292481,-1.1292481
2463249158,2,-6.312161,7.1745152,4.579854,1.5422423,-1.1292481,-1.1292481
2463249153,2,-6.312161,7.1745152,4.579854,1.5220838,-0.6979776,-0.6979776
2463249167,2,-4.1000137,6.719637,7.440802,1.5220838,-0.6979776,-0.6979776
2463249163,2,-4.1000137,6.719637,7.440802,1.2795705,-0.2532681,-0.2532681
2463249177,2,-1.7274622,6.3270044,11.412612,1.2795705,-0.2532681,-0.2532681
2463249172,2,-1.7274622,6.3270044,11.412612,0.99490756,0.1138616,0.1138616
2463249187,2,0.30033952,6.2791224,16.54556,0.99490756,0.1138616,0.1138616
2463249182,2,0.30033952,6.2791224,16.54556,0.83058494,0.37958774,0.37958774
2463249196,2,2.2706828,5.153896,21.501343,0.83058494,0.37958774,0.37958774
2463249191,2,2.2706828,5.153896,21.501343,0.95947737,0.5494082,0.5494082
2463249206,2,4.4110074,3.2769227,25.456394,0.95947737,0.5494082,0.5494082
2463249201,2,4.4110074,3.2769227,25.456394,1.493984,0.6288206,0.6288206
2463249215,2,5.988718,1.4669842,26.876095,1.493984,0.6288206,0.6288206
2463249211,2,5.988718,1.4669842,26.876095,2.4389918,0.590947,0.590947
2463249225,2,5.8690133,1.390373,23.325647,2.4389918,0.590947,0.590947
2463249220,2,5.8690133,1.390373,23.325647,3.6643863,0.44678286,0.44678286
2463249235,2,4.940103,3.0207543,16.957346,3.6643863,0.44678286,0.44678286
2463249230,2,4.940103,3.0207543,16.957346,4.7437844,0.30445138,0.30445138
2463249240,2,4.940103,3.0207543,16.957346,5.1994896,0.23053676,0.23053676
2463249244,2,3.8507879,4.653529,13.9096575,5.1994896,0.23053676,0.23053676
2463249249,2,3.8507879,4.653529,13.9096575,5.029058,0.2904015,0.2904015
2463249254,2,4.3798842,5.611169,14.491423,5.029058,0.2904015,0.2904015
2463249264,2,7.655011,5.8481846,16.04998,5.029058,0.2904015,0.2904015
2463249259,2,7.655011,5.8481846,16.04998,4.4957733,0.45166978,0.45166978
2463249268,2,7.655011,5.8481846,16.04998,3.8079395,0.52375185,0.52375185
2463249273,2,11.583727,5.3166947,18.343527,3.8079395,0.52375185,0.52375185
2463249278,2,11.583727,5.3166947,18.343527,3.2074594,0.3911942,0.3911942
2463249283,2,13.455913,4.4859424,20.993795,3.2074594,0.3911942,0.3911942
2463249288,2,13.455913,4.4859424,20.993795,2.879425,0.15173522,0.15173522
2463249292,2,13.657016,3.2410114,21.723995,2.879425,0.15173522,0.15173522
2463249297,2,13.657016,3.2410114,21.723995,2.7847412,-0.09016722,-0.09016722
2463249302,2,12.445602,1.8811632,20.316265,2.7847412,-0.09016722,-0.09016722
2463249307,2,12.445602,1.8811632,20.316265,2.7651935,-0.2532681,-0.2532681
2463249312,2,9.886312,0.94507056,17.910194,2.7651935,-0.2532681,-0.2532681
2463249317,2,9.886312,0.94507056,17.910194,2.71327,-0.25876588,-0.25876588
2463249321,2,7.9830027,0.5596207,14.900814,2.71327,-0.25876588,-0.25876588
2463249326,2,7.9830027,0.5596207,14.900814,2.5990384,-0.15003195,-0.15003195
2463249331,2,7.4970007,0.3082403,12.035077,2.5990384,-0.15003195,-0.15003195
2463249341,2,7.4108133,-0.08439188,9.353687,2.5990384,-0.15003195,-0.15003195
2463249336,2,7.4108133,-0.08439188,9.353687,2.4652588,-0.051682737,-0.051682737
2463249345,2,7.4108133,-0.08439188,9.353687,2.3143754,-0.010143938,-0.010143938
2463249350,2,7.3461723,-0.39801884,6.298817,2.3143754,-0.010143938,-0.010143938
2463249355,2,7.3461723,-0.39801884,6.298817,2.1274507,-0.033356797,-0.033356797
2463249360,2,6.709342,-0.7403749,3.5815148,2.1274507,-0.033356797,-0.033356797
2463249365,2,6.709342,-0.7403749,3.5815148,1.8751636,-0.07917166,-0.07917166
2463249369,2,5.713397,-1.2215887,0.8330895,1.8751636,-0.07917166,-0.07917166
2463249374,2,5.713397,-1.2215887,0.8330895,1.5190294,-0.11704527,-0.11704527
2463249379,2,4.111745,-1.8895423,-1.6926848,1.5190294,-0.11704527,-0.11704527
2463249384,2,4.111745,-1.8895423,-1.6926848,1.0578265,-0.09810846,-0.09810846
2463249389,2,2.0647902,-2.7107182,-3.3829186,1.0578265,-0.09810846,-0.09810846
2463249393,2,2.0647902,-2.7107182,-3.3829186,0.53614813,0.03506005,0.03506005
2463249398,2,0.30991593,-3.7282102,-4.0556602,0.53614813,0.03506005,0.03506005
2463249403,2,0.30991593,-3.7282102,-4.0556602,0.02913037,0.29773188,0.29773188
2463249408,2,-0.42028418,-4.752885,-3.734851,0.02913037,0.29773188,0.29773188
2463249413,2,-0.42028418,-4.752885,-3.734851,-0.37404037,0.63431835,0.63431835
2463249418,2,0.16387591,-5.7464356,-2.4611905,-0.37404037,0.63431835,0.63431835
2463249422,2,0.16387591,-5.7464356,-2.4611905,-0.57440394,0.95807666,0.95807666
2463249427,2,1.839745,-6.5269117,-0.9289672,-0.57440394,0.95807666,0.95807666
2463249432,2,1.839745,-6.5269117,-0.9289672,-0.5090414,1.2054769,1.2054769
2463249437,2,3.8603647,-6.9602437,0.1507713,-0.5090414,1.2054769,1.2054769
2463249442,2,3.8603647,-6.9602437,0.1507713,-0.21643725,1.3349801,1.3349801
2463249446,2,5.6176333,-6.895603,-0.08385036,-0.21643725,1.3349801,1.3349801
2463249451,2,5.6176333,-6.895603,-0.08385036,0.19406384,1.3508626,1.3508626
2463249456,2,6.8027115,-6.400025,-1.6304381,0.19406384,1.3508626,1.3508626
2463249466,2,7.2791376,-5.8302293,-3.8210385,0.19406384,1.3508626,1.3508626
2463249461,2,7.2791376,-5.8302293,-3.8210385,0.5789087,1.2800024,1.2800024
2463249470,2,7.2791376,-5.8302293,-3.8210385,0.8208111,1.1834857,1.1834857
2463249475,2,7.257591,-5.0904527,-5.6357656,0.8208111,1.1834857,1.1834857
2463249480,2,7.257591,-5.0904527,-5.6357656,0.84830004,1.1052951,1.1052951
2463249485,2,7.3629313,-5.006659,-7.393034,0.84830004,1.1052951,1.1052951
2463249490,2,7.3629313,-5.006659,-7.393034,0.6125062,1.0460411,1.0460411
2463249495,2,7.4563007,-5.437597,-8.707394,0.6125062,1.0460411,1.0460411
2463249499,2,7.4563007,-5.437597,-8.707394,0.113429695,0.9812895,0.9812895
2463249504,2,7.2599845,-5.5381494,-9.028203,0.113429695,0.9812895,0.9812895
2463249509,2,7.2599845,-5.5381494,-9.028203,-0.5664627,0.94097245,0.94097245
2463249514,2,7.0947924,-5.495055,-8.26688,-0.5664627,0.94097245,0.94097245
2463249519,2,7.0947924,-5.495055,-8.26688,-1.310496,0.9330312,0.9330312
2463249523,2,7.2863197,-5.1933985,-6.2989306,-1.310496,0.9330312,0.9330312
2463249528,2,7.2863197,-5.1933985,-6.2989306,-1.9714516,0.92875516,0.92875516
2463249533,2,7.738805,-4.4679866,-2.7293296,-1.9714516,0.92875516,0.92875516
2463249538,2,7.738805,-4.4679866,-2.7293296,-2.3953917,0.9281443,0.9281443
2463249543,2,8.294235,-4.0921135,1.161081,-2.3953917,0.9281443,0.9281443
2463249552,2,9.395521,-3.479224,3.7610722,-2.3953917,0.9281443,0.9281443
2463249547,2,9.395521,-3.479224,3.7610722,-2.5236733,0.951968,0.951968
2463249557,2,9.395521,-3.479224,3.7610722,-2.4094417,0.9873982,0.9873982
2463249562,2,11.504723,-2.5311606,5.281325,-2.4094417,0.9873982,0.9873982
2463249567,2,11.504723,-2.5311606,5.281325,-2.1748695,0.9696831,0.9696831
2463249572,2,14.279482,-1.4849396,5.2023196,-2.1748695,0.9696831,0.9696831
2463249576,2,14.279482,-1.4849396,5.2023196,-2.014823,0.7845911,0.7845911
2463249581,2,16.690338,0.32739308,3.3971694,-2.014823,0.7845911,0.7845911
2463249591,2,17.051847,1.5795068,1.9487395,-2.014823,0.7845911,0.7845911
2463249586,2,17.051847,1.5795068,1.9487395,-2.1663175,0.39302677,0.39302677
2463249596,2,17.051847,1.5795068,1.9487395,-2.7185392,-0.0028135602,-0.0028135602
2463249600,2,15.943381,1.0958987,2.8896203,-2.7185392,-0.0028135602,-0.0028135602
2463249605,2,15.943381,1.0958987,2.8896203,-3.5804694,-0.15125369,-0.15125369
2463249610,2,15.059958,-0.5703939,6.248541,-3.5804694,-0.15125369,-0.15125369
2463249615,2,15.059958,-0.5703939,6.248541,-4.59817,-0.06390004,-0.06390004
2463249620,2,14.753514,-1.5902799,10.804511,-4.59817,-0.06390004,-0.06390004
2463249629,2,14.885189,-1.7267436,17.01241,-4.59817,-0.06390004,-0.06390004
2463249624,2,14.885189,-1.7267436,17.01241,-5.559671,0.10103344,0.10103344
2463249639,2,14.542833,-0.9726025,24.158792,-5.559671,0.10103344,0.10103344
2463249634,2,14.542833,-0.9726025,24.158792,-6.1241097,0.17372634,0.17372634
2463249648,2,13.345784,1.0767461,28.039627,-6.1241097,0.17372634,0.17372634
2463249644,2,13.345784,1.0767461,28.039627,-5.979335,0.073544525,0.073544525
2463249658,2,11.2868595,3.6863139,26.727661,-5.979335,0.073544525,0.073544525
2463249653,2,11.2868595,3.6863139,26.727661,-5.1455045,-0.19340336,-0.19340336
2463249663,2,11.2868595,3.6863139,26.727661,-4.010518,-0.50189,-0.50189
2463249668,2,8.085949,5.568075,23.280159,-4.010518,-0.50189,-0.50189
2463249677,2,5.481169,6.846524,18.807983,-4.010518,-0.50189,-0.50189
2463249673,2,5.481169,6.846524,18.807983,-2.9793785,-0.6833168,-0.6833168
2463249687,2,4.454101,7.806557,15.530462,-2.9793785,-0.6833168,-0.6833168
2463249682,2,4.454101,7.806557,15.530462,-2.331251,-0.7120275,-0.7120275
2463249692,2,4.454101,7.806557,15.530462,-2.0746877,-0.6784299,-0.6784299
2463249697,2,3.9585226,8.34523,14.556063,-2.0746877,-0.6784299,-0.6784299
2463249701,2,3.9585226,8.34523,14.556063,-2.077742,-0.6130674,-0.6130674
2463249706,2,4.1835675,9.001213,15.496944,-2.077742,-0.6130674,-0.6130674
2463249716,2,5.2441535,9.8583,16.576683,-2.077742,-0.6130674,-0.6130674
2463249711,2,5.2441535,9.8583,16.576683,-2.1925845,-0.53732014,-0.53732014
2463249725,2,6.3645916,10.566953,17.196754,-2.1925845,-0.53732014,-0.53732014
2463249721,2,6.3645916,10.566953,17.196754,-2.3587399,-0.5672525,-0.5672525
2463249730,2,6.3645916,10.566953,17.196754,-2.5224516,-0.7755574,-0.7755574
2463249735,2,6.0796943,10.871004,17.910194,-2.5224516,-0.7755574,-0.7755574
2463249740,2,6.0796943,10.871004,17.910194,-2.5322254,-1.0987049,-1.0987049
2463249745,2,4.667176,10.959586,17.66839,-2.5322254,-1.0987049,-1.0987049
2463249750,2,4.667176,10.959586,17.66839,-2.3074272,-1.4578934,-1.4578934
2463249754,2,2.3401117,11.294759,17.014803,-2.3074272,-1.4578934,-1.4578934
2463249759,2,2.3401117,11.294759,17.014803,-1.8633286,-1.7865386,-1.7865386
2463249764,2,-0.80573404,11.033803,15.49455,-1.8633286,-1.7865386,-1.7865386
2463249769,2,-0.80573404,11.033803,15.49455,-1.2549073,-1.9569699,-1.9569699
2463249774,2,-3.5326126,10.248538,13.433231,-1.2549073,-1.9569699,-1.9569699
2463249778,2,-3.5326126,10.248538,13.433231,-0.57318217,-1.9520829,-1.9520829
2463249783,2,-5.431133,9.231046,11.357548,-0.57318217,-1.9520829,-1.9520829
2463249793,2,-6.3863783,8.393112,9.241164,-0.57318217,-1.9520829,-1.9520829
2463249788,2,-6.3863783,8.393112,9.241164,0.10182326,-1.8079188,-1.8079188
2463249798,2,-6.3863783,8.393112,9.241164,0.6509907,-1.5843424,-1.5843424
2463249802,2,-6.522842,8.086667,7.4312253,0.6509907,-1.5843424,-1.5843424
2463249807,2,-6.522842,8.086667,7.4312253,0.9515362,-1.3406073,-1.3406073
2463249812,2,-6.1804857,7.9549913,6.6818724,0.9515362,-1.3406073,-1.3406073
2463249817,2,-6.1804857,7.9549913,6.6818724,0.974749,-1.0999266,-1.0999266
2463249822,2,-5.4909854,7.8640156,7.735276,0.974749,-1.0999266,-1.0999266
2463249826,2,-5.4909854,7.8640156,7.735276,0.79820913,-0.88184786,-0.88184786
2463249831,2,-4.5908036,7.5144773,9.866024,0.79820913,-0.88184786,-0.88184786
2463249836,2,-4.5908036,7.5144773,9.866024,0.54286766,-0.6912581,-0.6912581
2463249841,2,-3.8007514,6.810612,12.231394,0.54286766,-0.6912581,-0.6912581
2463249846,2,-3.8007514,6.810612,12.231394,0.33944964,-0.5055552,-0.5055552
2463249851,2,-3.0442166,5.9343724,15.38921,0.33944964,-0.5055552,-0.5055552
2463249855,2,-3.0442166,5.9343724,15.38921,0.36999288,-0.3088568,-0.3088568
2463249860,2,-2.2757108,5.1371374,19.24371,0.36999288,-0.3088568,-0.3088568
2463249865,2,-2.2757108,5.1371374,19.24371,0.78171575,-0.09016722,-0.09016722
2463249870,2,-0.30057925,4.476366,22.12381,0.78171575,-0.09016722,-0.09016722
2463249879,2,2.5986743,3.54985,24.12767,0.78171575,-0.09016722,-0.09016722
2463249875,2,2.5986743,3.54985,24.12767,1.5062013,0.062548965,0.062548965
2463249889,2,4.454101,2.3025246,24.651978,1.5062013,0.062548965,0.062548965
2463249884,2,4.454101,2.3025246,24.651978,2.3907335,0.046666484,0.046666484
2463249894,2,4.454101,2.3025246,24.651978,3.2990892,-0.08466943,-0.08466943
2463249899,2,4.066257,2.1660612,22.466166,3.2990892,-0.08466943,-0.08466943
2463249908,2,3.1852286,3.6360376,18.223824,3.2990892,-0.08466943,-0.08466943
2463249903,2,3.1852286,3.6360376,18.223824,4.004638,-0.15858407,-0.15858407
2463249913,2,3.1852286,3.6360376,18.223824,4.201947,-0.1475885,-0.1475885
2463249918,2,3.1636817,5.2520537,16.04998,4.201947,-0.1475885,-0.1475885
2463249923,2,3.1636817,5.2520537,16.04998,3.8769672,-0.105438836,-0.105438836
2463249928,2,3.9872515,5.7548146,17.972443,3.8769672,-0.105438836,-0.105438836
2463249932,2,3.9872515,5.7548146,17.972443,3.322913,-0.04801755,-0.04801755
2463249937,2,5.5003223,4.5314302,20.392878,3.322913,-0.04801755,-0.04801755
2463249942,2,5.5003223,4.5314302,20.392878,2.8061213,0.03200573,0.03200573
2463249947,2,7.372507,2.8364086,20.706503,2.8061213,0.03200573,0.03200573
2463249952,2,7.372507,2.8364086,20.706503,2.4139462,0.073544525,0.073544525
2463249956,2,8.318176,1.828493,19.825476,2.4139462,0.073544525,0.073544525
2463249966,2,8.531251,1.4550136,18.123272,2.4139462,0.073544525,0.073544525
2463249961,2,8.531251,1.4550136,18.123272,2.1347811,0.07415539,0.07415539
2463249971,2,8.531251,1.4550136,18.123272,1.9063177,0.06499242,0.06499242
2463249976,2,9.010071,1.241939,15.923094,1.9063177,0.06499242,0.06499242
2463249985,2,9.414673,1.0911107,13.715735,1.9063177,0.06499242,0.06499242
2463249980,2,9.414673,1.0911107,13.715735,1.6363155,0.009403734,0.009403734
2463249990,2,9.414673,1.0911107,13.715735,1.2942312,-0.12009959,-0.12009959
2463249995,2,8.607862,1.1820865,11.053497,1.2942312,-0.12009959,-0.12009959
2463250000,2,8.607862,1.1820865,11.053497,0.8562412,-0.27831355,-0.27831355
2463250004,2,6.144335,0.46385676,7.9603214,0.8562412,-0.27831355,-0.27831355
2463250014,2,3.2307165,-0.62067,5.9947667,0.8562412,-0.27831355,-0.27831355
2463250009,2,3.2307165,-0.62067,5.9947667,0.3296758,-0.32168496,-0.32168496
2463250019,2,3.2307165,-0.62067,5.9947667,-0.21704812,-0.1787426,-0.1787426
2463250024,2,0.44159135,-1.714773,5.159226,-0.21704812,-0.1787426,-0.1787426
2463250029,2,0.44159135,-1.714773,5.159226,-0.67030966,0.16334164,0.16334164
2463250033,2,-1.3348299,-2.5311606,4.429026,-0.67030966,0.16334164,0.16334164
2463250038,2,-1.3348299,-2.5311606,4.429026,-0.97635293,0.6569204,0.6569204
2463250043,2,-1.7801323,-2.9501278,3.8113484,-0.97635293,0.6569204,0.6569204
2463250048,2,-1.7801323,-2.9501278,3.8113484,-1.1351779,1.1810422,1.1810422
2463250053,2,-1.2414601,-3.3475485,2.954261,-1.1351779,1.1810422,1.1810422
2463250057,2,-1.2414601,-3.3475485,2.954261,-1.1803818,1.6483537,1.6483537
2463250062,2,-0.34367305,-3.9364967,2.0061977,-1.1803818,1.6483537,1.6483537
2463250067,2,-0.34367305,-3.9364967,2.0061977,-1.1321235,2.0313659,2.0313659
2463250072,2,0.13275263,-4.728944,1.062923,-1.1321235,2.0313659,2.0313659
2463250077,2,0.13275263,-4.728944,1.062923,-1.0056745,2.3899436,2.3899436
2463250081,2,0.60439,-5.035388,0.52903897,-1.0056745,2.3899436,2.3899436
2463250086,2,0.60439,-5.035388,0.52903897,-0.8108086,2.77601,2.77601
2463250091,2,2.1868892,-4.908501,0.54579765,-0.8108086,2.77601,2.77601
2463250101,2,5.2154245,-4.666697,0.7133845,-0.8108086,2.77601,2.77601
2463250096,2,5.2154245,-4.666697,0.7133845,-0.5279782,3.1345875,3.1345875
2463250106,2,5.2154245,-4.666697,0.7133845,-0.13824657,3.3520555,3.3520555
2463250110,2,8.284659,-4.257306,1.0294055,-0.13824657,3.3520555,3.3520555
2463250115,2,8.284659,-4.257306,1.0294055,0.33761704,3.3874855,3.3874855
2463250120,2,11.373046,-3.5845642,0.37102836,0.33761704,3.3874855,3.3874855
2463250125,2,11.373046,-3.5845642,0.37102836,0.7688876,3.2249956,3.2249956
2463250130,2,13.994584,-2.849576,-0.4980294,0.7688876,3.2249956,3.2249956
2463250134,2,13.994584,-2.849576,-0.4980294,1.0688221,2.861531,2.861531
2463250139,2,15.809312,-1.7818078,-1.431728,1.0688221,2.861531,2.861531
2463250144,2,15.809312,-1.7818078,-1.431728,1.1909951,2.3306897,2.3306897
2463250149,2,17.001572,-0.6541874,-2.5186486,1.1909951,2.3306897,2.3306897
2463250158,2,17.109306,-0.18015583,-4.1514244,1.1909951,2.3306897,2.3306897
2463250154,2,17.109306,-0.18015583,-4.1514244,1.1335738,1.6495755,1.6495755
2463250163,2,17.109306,-0.18015583,-4.1514244,0.90816474,0.89271414,0.89271414
2463250168,2,15.699183,-0.7858628,-6.2654133,0.90816474,0.89271414,0.89271414
2463250178,2,13.163833,-2.0738878,-7.7976365,0.90816474,0.89271414,0.89271414
2463250173,2,13.163833,-2.0738878,-7.7976365,0.47750506,0.18533278,0.18533278
2463250187,2,9.737877,-3.6851165,-7.859883,0.47750506,0.18533278,0.18533278
2463250183,2,9.737877,-3.6851165,-7.859883,-0.16329202,-0.35528252,-0.35528252
2463250192,2,9.737877,-3.6851165,-7.859883,-0.9299272,-0.6124565,-0.6124565
2463250197,2,6.4962673,-5.0306,-6.3683596,-0.9299272,-0.6124565,-0.6124565
2463250207,2,3.9513404,-5.0497527,-0.2035553,-0.9299272,-0.6124565,-0.6124565
2463250202,2,3.9513404,-5.0497527,-0.2035553,-1.6385304,-0.54342884,-0.54342884
2463250211,2,3.9513404,-5.0497527,-0.2035553,-1.9971079,-0.22272487,-0.22272487
2463250216,2,4.458889,-4.6571207,3.976541,-1.9971079,-0.22272487,-0.22272487
2463250221,2,4.458889,-4.6571207,3.976541,-1.937854,0.20793477,0.20793477
2463250226,2,8.090737,-3.8742502,6.6100497,-1.937854,0.20793477,0.20793477
2463250235,2,13.317054,-2.1911986,7.6466947,-1.937854,0.20793477,0.20793477
2463250231,2,13.317054,-2.1911986,7.6466947,-1.6263131,0.44067422,0.44067422
2463250240,2,13.317054,-2.1911986,7.6466947,-1.3575325,0.26902124,0.26902124
2463250245,2,17.44448,0.5955322,6.5501976,-1.3575325,0.26902124,0.26902124
2463250250,2,17.44448,0.5955322,6.5501976,-1.4852033,-0.3210741,-0.3210741
2463250255,2,19.706902,3.7485602,5.113738,-1.4852033,-0.3210741,-0.3210741
2463250259,2,19.706902,3.7485602,5.113738,-2.1296656,-1.143298,-1.143298
2463250264,2,19.16823,3.7725012,6.2365704,-2.1296656,-1.143298,-1.143298
2463250269,2,19.16823,3.7725012,6.2365704,-3.1907375,-1.8531228,-1.8531228
2463250274,2,17.422932,1.3472792,10.20838,-3.1907375,-1.8531228,-1.8531228
2463250284,2,15.112628,-1.4609985,15.915913,-3.1907375,-1.8531228,-1.8531228
2463250279,2,15.112628,-1.4609985,15.915913,-4.457671,-2.3143258,-2.3143258
2463250288,2,15.112628,-1.4609985,15.915913,-5.6060967,-2.6252558,-2.6252558
2463250293,2,11.320376,-4.3530703,23.756584,-5.6060967,-2.6252558,-2.6252558
2463250298,2,11.320376,-4.3530703,23.756584,-6.232844,-2.777972,-2.777972
2463250303,2,5.5098987,-5.957116,31.582893,-6.232844,-2.777972,-2.777972
2463250312,2,0.71212447,-4.5757213,34.005722,-6.232844,-2.777972,-2.777972
2463250308,2,0.71212447,-4.5757213,34.005722,-6.0343127,-2.6625185,-2.6625185
2463250317,2,0.71212447,-4.5757213,34.005722,-5.152224,-2.3638058,-2.3638058
2463250322,2,-1.7035211,-1.470575,32.049744,-5.152224,-2.3638058,-2.3638058
2463250327,2,-1.7035211,-1.470575,32.049744,-3.9897487,-2.0485995,-2.0485995
2463250332,2,-2.3762627,0.9354942,28.195246,-3.9897487,-2.0485995,-2.0485995
2463250336,2,-2.3762627,0.9354942,28.195246,-2.908518,-1.7504976,-1.7504976
2463250341,2,-1.2582188,2.5395403,24.458055,-2.908518,-1.7504976,-1.7504976
2463250351,2,0.3913153,3.592944,22.040016,-2.908518,-1.7504976,-1.7504976
2463250346,2,0.3913153,3.592944,22.040016,-2.110118,-1.536084,-1.536084
2463250361,2,1.2220675,4.517066,20.275564,-2.110118,-1.536084,-1.536084
2463250356,2,1.2220675,4.517066,20.275564,-1.5548419,-1.427961,-1.427961
2463250365,2,1.2220675,4.517066,20.275564,-1.0997477,-1.373594,-1.373594
2463250370,2,1.2938905,5.340636,18.400988,-1.0997477,-1.373594,-1.373594
2463250380,2,0.82943535,6.719637,16.55753,-1.0997477,-1.373594,-1.373594
2463250375,2,0.82943535,6.719637,16.55753,-0.73506135,-1.3259466,-1.3259466
2463250385,2,0.82943535,6.719637,16.55753,-0.57745826,-1.2831861,-1.2831861
2463250389,2,0.36976835,8.323683,14.510576,-0.57745826,-1.2831861,-1.2831861
2463250394,2,0.36976835,8.323683,14.510576,-0.6904682,-1.2813535,-1.2813535
2463250399,2,-0.02046968,9.772113,12.571356,-0.6904682,-1.2813535,-1.2813535
2463250404,2,-0.02046968,9.772113,12.571356,-0.97207683,-1.3766483,-1.3766483
2463250409,2,-0.9709269,10.346696,10.682412,-0.97207683,-1.3766483,-1.3766483
2463250418,2,-3.1136453,10.425702,9.909118,-0.97207683,-1.3766483,-1.3766483
2463250413,2,-3.1136453,10.425702,9.909118,-1.2585725,-1.5373058,-1.5373058
2463250423,2,-3.1136453,10.425702,9.909118,-1.3721933,-1.6564244,-1.6564244
2463250428,2,-6.003322,9.808023,10.191621,-1.3721933,-1.6564244,-1.6564244
2463250433,2,-6.003322,9.808023,10.191621,-1.2048163,-1.644818,-1.644818
2463250437,2,-8.60092,8.955725,10.457366,-1.2048163,-1.644818,-1.644818
2463250442,2,-8.60092,8.955725,10.457366,-0.7741567,-1.495767,-1.495767
2463250447,2,-10.288759,8.350018,9.885177,-0.7741567,-1.495767,-1.495767
2463250457,2,-11.097965,7.9310503,8.487023,-0.7741567,-1.495767,-1.495767
2463250452,2,-11.097965,7.9310503,8.487023,-0.20238736,-1.265471,-1.265471
2463250462,2,-11.097965,7.9310503,8.487023,0.3803776,-1.0015774,-1.0015774
2463250466,2,-11.327798,7.9502034,7.4743195,0.3803776,-1.0015774,-1.0015774
2463250471,2,-11.327798,7.9502034,7.4743195,0.8990018,-0.7285208,-0.7285208
2463250476,2,-10.827431,8.048362,6.882977,0.8990018,-0.7285208,-0.7285208
2463250481,2,-10.827431,8.048362,6.882977,1.2746835,-0.45363173,-0.45363173
2463250486,2,-9.120439,7.497719,7.201392,1.2746835,-0.45363173,-0.45363173
2463250490,2,-9.120439,7.497719,7.201392,1.4371736,-0.24227254,-0.24227254
2463250495,2,-7.523575,6.647814,9.131036,1.4371736,-0.24227254,-0.24227254
2463250500,2,-7.523575,6.647814,9.131036,1.4567212,-0.08405857,-0.08405857
2463250505,2,-6.738311,5.3813353,12.336734,1.4567212,-0.08405857,-0.08405857
2463250514,2,-6.139786,4.1004925,15.654955,1.4567212,-0.08405857,-0.08405857
2463250510,2,-6.139786,4.1004925,15.654955,1.4707711,0.093092196,0.093092196
2463250519,2,-6.139786,4.1004925,15.654955,1.5587356,0.29284495,0.29284495
2463250524,2,-5.3832507,2.6951568,19.01627,1.5587356,0.29284495,0.29284495
2463250529,2,-5.3832507,2.6951568,19.01627,1.7847556,0.49565205,0.49565205
2463250534,2,-4.4016705,1.2563034,22.312943,1.7847556,0.49565205,0.49565205
2463250539,2,-4.4016705,1.2563034,22.312943,2.1897588,0.6752463,0.6752463
2463250543,2,-3.0920985,0.20768818,23.340012,2.1897588,0.6752463,0.6752463
2463250548,2,-3.0920985,0.20768818,23.340012,2.7383153,0.789478,0.789478
2463250553,2,-2.1033356,0.2962698,21.647383,2.7383153,0.789478,0.789478
2463250563,2,-2.1296706,1.2012392,17.9892,2.7383153,0.789478,0.789478
2463250558,2,-2.1296706,1.2012392,17.9892,3.3125281,0.8023062,0.8023062
2463250567,2,-2.1296706,1.2012392,17.9892,3.696762,0.74732834,0.74732834
2463250572,2,-2.527091,2.6855803,14.151461,3.696762,0.74732834,0.74732834
2463250577,2,-2.527091,2.6855803,14.151461,3.7193642,0.663029,0.663029
2463250582,2,-3.2932029,2.9920251,13.354226,3.7193642,0.663029,0.663029
2463250587,2,-3.2932029,2.9920251,13.354226,3.422484,0.6477574,0.6477574
2463250591,2,-4.3681526,1.2323624,16.310938,3.422484,0.6477574,0.6477574
2463250596,2,-4.3681526,1.2323624,16.310938,3.0486348,0.8365146,0.8365146
2463250601,2,-4.128743,-0.9462674,18.750525,3.0486348,0.8365146,0.8365146
2463250611,2,-2.6851015,-1.9517888,19.760836,3.0486348,0.8365146,0.8365146
2463250606,2,-2.6851015,-1.9517888,19.760836,2.7279308,1.1804314,1.1804314
2463250615,2,-2.6851015,-1.9517888,19.760836,2.5330648,1.5457284,1.5457284
2463250620,2,-0.10186905,-1.0970956,19.04021,2.5330648,1.5457284,1.5457284
2463250625,2,-0.10186905,-1.0970956,19.04021,2.4383807,1.765029,1.765029
2463250630,2,2.708803,0.10713604,16.46416,2.4383807,1.765029,1.765029
2463250635,2,2.708803,0.10713604,16.46416,2.2661169,1.733264,1.733264
2463250640,2,4.4205837,0.8804299,13.615183,2.2661169,1.733264,1.733264
2463250644,2,4.4205837,0.8804299,13.615183,1.881883,1.5481719,1.5481719
2463250649,2,5.3590703,1.220392,12.403769,1.881883,1.5481719,1.5481719
2463250659,2,4.422978,-0.22803779,12.861042,1.881883,1.5481719,1.5481719
2463250654,2,4.422978,-0.22803779,12.861042,1.330883,1.2977175,1.2977175
2463250664,2,4.422978,-0.22803779,12.861042,0.70596856,1.1590511,1.1590511
2463250668,2,2.3568702,-1.858419,13.423655,0.70596856,1.1590511,1.1590511
2463250678,2,0.4008917,-2.9213989,13.277615,0.70596856,1.1590511,1.1590511
2463250673,2,0.4008917,-2.9213989,13.277615,0.15557936,1.2329657,1.2329657
2463250683,2,0.4008917,-2.9213989,13.277615,-0.18711574,1.4620401,1.4620401
2463250688,2,-0.6525117,-3.3810656,11.910584,-0.18711574,1.4620401,1.4620401
2463250692,2,-0.6525117,-3.3810656,11.910584,-0.3037909,1.7485355,1.7485355
2463250697,2,-0.8727689,-3.4385242,10.004882,-0.3037909,1.7485355,1.7485355
2463250702,2,-0.8727689,-3.4385242,10.004882,-0.2365958,2.0301442,2.0301442
2463250707,2,-0.46337795,-3.3882482,8.194943,-0.2365958,2.0301442,2.0301442
2463250712,2,-0.46337795,-3.3882482,8.194943,-0.047227718,2.301979,2.301979
2463250717,2,1.0712394,-3.0027983,6.8494596,-0.047227718,2.301979,2.301979
2463250721,2,1.0712394,-3.0027983,6.8494596,0.21972016,2.5261664,2.5261664
2463250726,2,3.5180082,-2.4521554,5.7122626,0.21972016,2.5261664,2.5261664
2463250731,2,3.5180082,-2.4521554,5.7122626,0.514157,2.6312351,2.6312351
2463250736,2,5.969566,-1.8392662,4.534366,0.514157,2.6312351,2.6312351
2463250745,2,8.083554,-1.1641303,3.2822526,0.514157,2.6312351,2.6312351
2463250741,2,8.083554,-1.1641303,3.2822526,0.7927113,2.6061897,2.6061897
2463250750,2,8.083554,-1.1641303,3.2822526,1.024229,2.4864602,2.4864602
2463250755,2,9.893494,-0.57518214,2.1737847,1.024229,2.4864602,2.4864602
2463250760,2,9.893494,-0.57518214,2.1737847,1.1854973,2.292816,2.292816
2463250765,2,11.437687,-0.20170271,1.1778396,1.1854973,2.292816,2.292816
2463250769,2,11.437687,-0.20170271,1.1778396,1.2789596,2.0368638,2.0368638
2463250774,2,12.33308,0.19571768,0.48594517,1.2789596,2.0368638,2.0368638
2463250779,2,12.33308,0.19571768,0.48594517,1.3211093,1.7234901,1.7234901
2463250784,2,13.309873,0.6984784,-0.8834793,1.3211093,1.7234901,1.7234901
2463250789,2,13.309873,0.6984784,-0.8834793,1.2978964,1.326428,1.326428
2463250794,2,13.915579,0.87564176,-2.5066783,1.2978964,1.326428,1.326428
2463250798,2,13.915579,0.87564176,-2.5066783,1.1781669,0.82857335,0.82857335
2463250803,2,13.769539,0.5261033,-3.9191964,1.1781669,0.82857335,0.82857335
2463250808,2,13.769539,0.5261033,-3.9191964,0.9405406,0.28734717,0.28734717
2463250813,2,12.673042,0.109530136,-4.994147,0.9405406,0.28734717,0.28734717
2463250818,2,12.673042,0.109530136,-4.994147,0.57402176,-0.21722709,-0.21722709
2463250822,2,10.451318,-0.63982284,-4.845713,0.57402176,-0.21722709,-0.21722709
2463250827,2,10.451318,-0.63982284,-4.845713,0.11281883,-0.57458293,-0.57458293
2463250832,2,7.5161533,-1.5639448,-3.0525327,0.11281883,-0.57458293,-0.57458293
2463250837,2,7.5161533,-1.5639448,-3.0525327,-0.31539735,-0.6943124,-0.6943124
2463250842,2,5.7253675,-2.2151396,-1.139648,-0.31539735,-0.6943124,-0.6943124
2463250846,2,5.7253675,-2.2151396,-1.139648,-0.61716443,-0.6313933,-0.6313933
2463250851,2,4.978409,-2.856758,0.9743413,-0.61716443,-0.6313933,-0.6313933
2463250856,2,4.978409,-2.856758,0.9743413,-0.7601068,-0.5025009,-0.5025009
2463250861,2,5.1651483,-2.7969058,2.8728616,-0.7601068,-0.5025009,-0.5025009
2463250866,2,5.1651483,-2.7969058,2.8728616,-0.7417809,-0.3760519,-0.3760519
2463250870,2,5.921684,-1.6453443,4.481696,-0.7417809,-0.3760519,-0.3760519
2463250880,2,6.970299,-0.18254992,5.6284695,-0.7417809,-0.3760519,-0.3760519
2463250875,2,6.970299,-0.18254992,5.6284695,-0.6098341,-0.3088568,-0.3088568
2463250890,2,8.552798,1.3448852,6.444857,-0.6098341,-0.3088568,-0.3088568
2463250885,2,8.552798,1.3448852,6.444857,-0.42413127,-0.29969382,-0.29969382
2463250895,2,8.552798,1.3448852,6.444857,-0.2799672,-0.39437786,-0.39437786
2463250899,2,10.171209,2.6616395,6.669902,-0.2799672,-0.39437786,-0.39437786
2463250909,2,11.047449,4.3853903,6.248541,-0.2799672,-0.39437786,-0.39437786
2463250904,2,11.047449,4.3853903,6.248541,-0.29462793,-0.6613257,-0.6613257
2463250914,2,11.047449,4.3853903,6.248541,-0.546915,-1.1011484,-1.1011484
2463250919,2,10.190361,5.3957,5.889426,-0.546915,-1.1011484,-1.1011484
2463250923,2,10.190361,5.3957,5.889426,-1.0417155,-1.5202016,-1.5202016
2463250928,2,8.3493,4.4332724,6.6052613,-1.0417155,-1.5202016,-1.5202016
2463250938,2,6.6901894,3.0494835,7.752035,-1.0417155,-1.5202016,-1.5202016
2463250933,2,6.6901894,3.0494835,7.752035,-1.7381012,-1.7242304,-1.7242304
2463250943,2,6.6901894,3.0494835,7.752035,-2.57071,-1.7193434,-1.7193434
2463250947,2,5.5529923,1.7446997,9.514092,-2.57071,-1.7193434,-1.7193434
2463250957,2,4.4421306,0.59792626,12.312793,-2.57071,-1.7193434,-1.7193434
2463250952,2,4.4421306,0.59792626,12.312793,-3.4075944,-1.5977814,-1.5977814
2463250967,2,2.323353,-0.25197878,14.939119,-3.4075944,-1.5977814,-1.5977814
2463250962,2,2.323353,-0.25197878,14.939119,-4.028233,-1.4713324,-1.4713324
2463250972,2,2.323353,-0.25197878,14.939119,-4.2664704,-1.3027338,-1.3027338
2463250976,2,-0.2119976,-0.005386617,16.095469,-4.2664704,-1.3027338,-1.3027338
2463250981,2,-0.2119976,-0.005386617,16.095469,-4.135134,-1.035175,-1.035175
2463250986,2,-1.7442207,1.1796923,15.877605,-4.135134,-1.035175,-1.035175
2463250991,2,-1.7442207,1.1796923,15.877605,-3.785109,-0.7108058,-0.7108058
2463250996,2,-1.507205,2.6448808,15.154588,-3.785109,-0.7108058,-0.7108058
2463251005,2,0.12796444,3.2769227,14.486635,-3.785109,-0.7108058,-0.7108058
2463251000,2,0.12796444,3.2769227,14.486635,-3.3611689,-0.4487448,-0.4487448
2463251015,2,1.4806303,3.0063896,14.412418,-3.3611689,-0.4487448,-0.4487448
2463251010,2,1.4806303,3.0063896,14.412418,-2.9561656,-0.32718274,-0.32718274
2463251024,2,1.5069653,2.9106257,14.623098,-2.9561656,-0.32718274,-0.32718274
2463251020,2,1.5069653,2.9106257,14.623098,-2.5621579,-0.32535014,-0.32535014
2463251029,2,1.5069653,2.9106257,14.623098,-2.1076744,-0.3748302,-0.3748302
2463251034,2,0.19260511,3.0806067,14.558458,-2.1076744,-0.3748302,-0.3748302
2463251039,2,0.19260511,3.0806067,14.558458,-1.5646157,-0.3760519,-0.3760519
2463251044,2,-1.6556392,3.4947858,13.974297,-1.5646157,-0.3760519,-0.3760519
2463251053,2,-3.0920985,4.213015,12.547415,-1.5646157,-0.3760519,-0.3760519
2463251048,2,-3.0920985,4.213015,12.547415,-0.96535736,-0.27464837,-0.27464837
2463251058,2,-3.0920985,4.213015,12.547415,-0.43146163,-0.087112896,-0.087112896
2463251063,2,-3.980309,5.2137485,10.737476,-0.43146163,-0.087112896,-0.087112896
2463251073,2,-4.1694427,6.2096934,8.446323,-0.43146163,-0.087112896,-0.087112896
2463251068,2,-4.1694427,6.2096934,8.446323,-0.12602927,0.1535678,0.1535678
2463251082,2,-3.6235883,7.117057,6.9883175,-0.12602927,0.1535678,0.1535678
2463251077,2,-3.6235883,7.117057,6.9883175,-0.15107474,0.41807222,0.41807222
2463251087,2,-3.6235883,7.117057,6.9883175,-0.44917673,0.63309664,0.63309664
2463251092,2,-2.6300373,8.113002,6.7513013,-0.44917673,0.63309664,0.63309664
2463251097,2,-2.6300373,8.113002,6.7513013,-0.858456,0.7418306,0.7418306
2463251101,2,-1.8112556,8.989242,7.833434,-0.858456,0.7418306,0.7418306
2463251111,2,-1.8974432,9.51355,9.1741295,-0.858456,0.7418306,0.7418306
2463251106,2,-1.8974432,9.51355,9.1741295,-1.1418973,0.7283915,0.7283915
2463251116,2,-1.8974432,9.51355,9.1741295,-1.1803818,0.6593638,0.6593638
2463251121,2,-2.2589521,9.683531,10.268233,-1.1803818,0.6593638,0.6593638
2463251125,2,-2.2589521,9.683531,10.268233,-0.9708551,0.5921687,0.5921687
2463251130,2,-2.1919172,9.594949,10.818875,-0.9708551,0.5921687,0.5921687
2463251140,2,-2.0267246,9.635649,11.225872,-0.9708551,0.5921687,0.5921687
2463251135,2,-2.0267246,9.635649,11.225872,-0.5847886,0.4950412,0.4950412
2463251145,2,-2.0267246,9.635649,11.225872,-0.13641398,0.36370528,0.36370528
