,time,activity,acceleration_x,acceleration_y,acceleration_z,gyro_x,gyro_y,gyro_z
13,2463163198,0,-1.3276477,3.1165182999999996,8.896414,0.84402394,-0.011976531,-0.011976531
14,2463163203,0,-1.1840017,3.5450617999999996,8.250007,0.84402394,-0.011976531,-0.011976531
15,2463163213,0,-0.9230449000000001,3.6982844,7.7280940000000005,0.84402394,-0.011976531,-0.011976531
16,2463163208,0,-0.9230449000000001,3.6982844,7.7280940000000005,0.8757889000000001,-0.019917771,-0.019917771
17,2463163218,0,-0.9230449000000001,3.6982844,7.7280940000000005,0.8275306,-0.06695436,-0.06695436
18,2463163223,0,-0.72194064,3.693496,7.799917,0.8275306,-0.06695436,-0.06695436
19,2463163233,0,-0.6573,3.7437720000000003,8.250007,0.8275306,-0.06695436,-0.06695436
20,2463163228,0,-0.6573,3.7437720000000003,8.250007,0.7420095999999999,-0.1268191,-0.1268191
21,2463163237,0,-0.6573,3.7437720000000003,8.250007,0.6577102,-0.1872947,-0.1872947
22,2463163242,0,-0.9158627,3.7581365,8.64264,0.6577102,-0.1872947,-0.1872947
23,2463163252,0,-1.263007,3.6815255,8.743192,0.6577102,-0.1872947,-0.1872947
24,2463163247,0,-1.263007,3.6815255,8.743192,0.5850173000000001,-0.22700092,-0.22700092
25,2463163257,0,-1.263007,3.6815255,8.743192,0.5282069,-0.23372042,-0.23372042
26,2463163262,0,-1.5574812,3.5211208,8.724039,0.5282069,-0.23372042,-0.23372042
27,2463163267,0,-1.5574812,3.5211208,8.724039,0.48788977,-0.21295103,-0.21295103
28,2463163272,0,-1.7298563000000002,3.3655044999999997,8.771921,0.48788977,-0.21295103,-0.21295103
29,2463163277,0,-1.7298563000000002,3.3655044999999997,8.771921,0.46773124,-0.17813174,-0.17813174
30,2463163282,0,-1.7849206000000002,3.236223,8.815014999999999,0.46773124,-0.17813174,-0.17813174
31,2463163291,0,-1.820832,3.2098880000000003,8.826985,0.46773124,-0.17813174,-0.17813174
32,2463163287,0,-1.820832,3.2098880000000003,8.826985,0.47322902,-0.13414948,-0.13414948
33,2463163296,0,-1.820832,3.2098880000000003,8.826985,0.49766362,-0.08466943,-0.08466943
34,2463163301,0,-1.8495611,3.260164,8.688127,0.49766362,-0.08466943,-0.08466943
35,2463163306,0,-1.8495611,3.260164,8.688127,0.52698517,-0.02846988,-0.02846988
36,2463163311,0,-1.8663199000000001,3.3583220999999996,8.285919,0.52698517,-0.02846988,-0.02846988
37,2463163316,0,-1.8663199000000001,3.3583220999999996,8.285919,0.53798074,0.028951406000000002,0.028951406000000002
38,2463163321,0,-1.8112556,3.4947858,7.8238582999999995,0.53798074,0.028951406000000002,0.028951406000000002
39,2463163326,0,-1.8112556,3.4947858,7.8238582999999995,0.50988096,0.07965317,0.07965317
40,2463163331,0,-1.8040733,3.6240669999999997,7.4815016000000005,0.50988096,0.07965317,0.07965317
41,2463163336,0,-1.8040733,3.6240669999999997,7.4815016000000005,0.44390749999999995,0.12546803,0.12546803
42,2463163341,0,-1.8687139,3.6575847,7.2349095000000005,0.44390749999999995,0.12546803,0.12546803
43,2463163345,0,-1.8687139,3.6575847,7.2349095000000005,0.35838646,0.16883942,0.16883942
44,2463163350,0,-1.8399848,3.7054665,7.00747,0.35838646,0.16883942,0.16883942
45,2463163360,0,-1.7274622,3.8012303999999997,6.9380417,0.35838646,0.16883942,0.16883942
46,2463163355,0,-1.7274622,3.8012303999999997,6.9380417,0.26981106,0.2073239,0.2073239
47,2463163365,0,-1.7274622,3.8012303999999997,6.9380417,0.1861226,0.23420195,0.23420195
48,2463163370,0,-1.6843683999999997,3.8012303999999997,7.079293300000001,0.1861226,0.23420195,0.23420195
49,2463163375,0,-1.6843683999999997,3.8012303999999997,7.079293300000001,0.12381439,0.26046914,0.26046914
50,2463163380,0,-1.6316981000000002,3.8060186000000003,7.244486,0.12381439,0.26046914,0.26046914
51,2463163385,0,-1.6316981000000002,3.8060186000000003,7.244486,0.11465143,0.283682,0.283682
52,2463163390,0,-1.4377761999999998,3.8132010000000003,7.347432,0.11465143,0.283682,0.283682
53,2463163395,0,-1.4377761999999998,3.8132010000000003,7.347432,0.14275120000000002,0.28612545,0.28612545
54,2463163399,0,-1.1648489,3.7246193999999995,7.388132000000001,0.14275120000000002,0.28612545,0.28612545
55,2463163409,0,-1.0044442,3.7341957000000003,7.531778,0.14275120000000002,0.28612545,0.28612545
56,2463163404,0,-1.0044442,3.7341957000000003,7.531778,0.16229887,0.2629126,0.2629126
57,2463163414,0,-1.0044442,3.7341957000000003,7.531778,0.15191418,0.22442812,0.22442812
58,2463163419,0,-0.9517741,3.7437720000000003,7.7424583,0.15191418,0.22442812,0.22442812
59,2463163429,0,-0.99007964,3.7461660000000006,7.869345699999999,0.15191418,0.22442812,0.22442812
60,2463163424,0,-0.99007964,3.7461660000000006,7.869345699999999,0.10060154,0.18533278,0.18533278
61,2463163434,0,-0.99007964,3.7461660000000006,7.869345699999999,0.011415293,0.16211991,0.16211991
62,2463163439,0,-0.9972620000000001,3.762925,7.780764,0.011415293,0.16211991,0.16211991
63,2463163444,0,-0.9972620000000001,3.762925,7.780764,-0.100372955,0.15906559,0.15906559
64,2463163449,0,-1.0116266,3.8299595999999996,7.6275414999999995,-0.100372955,0.15906559,0.15906559
65,2463163453,0,-1.0116266,3.8299595999999996,7.6275414999999995,-0.22743282,0.1725046,0.1725046
66,2463163458,0,-1.0786613,3.8993886,7.613177,-0.22743282,0.1725046,0.1725046
67,2463163463,0,-1.0786613,3.8993886,7.613177,-0.3526601,0.18716536,0.18716536
68,2463163468,0,-1.1792135,3.9257236000000004,7.756823,-0.3526601,0.18716536,0.18716536
69,2463163478,0,-1.191184,3.8754475,8.166214,-0.3526601,0.18716536,0.18716536
70,2463163473,0,-1.191184,3.8754475,8.166214,-0.4442898,0.20121525,0.20121525
71,2463163483,0,-1.191184,3.8754475,8.166214,-0.49315897,0.21221082,0.21221082
72,2463163488,0,-1.1385138000000001,3.7677129999999996,8.714463,-0.49315897,0.21221082,0.21221082
73,2463163493,0,-1.1385138000000001,3.7677129999999996,8.714463,-0.5029328,0.21831946,0.21831946
74,2463163498,0,-1.0714791000000001,3.6887078,9.399175,-0.5029328,0.21831946,0.21831946
75,2463163503,0,-1.0714791000000001,3.6887078,9.399175,-0.48094168,0.22381724,0.22381724
76,2463163507,0,-0.9278331,3.6001260000000004,10.007276,-0.48094168,0.22381724,0.22381724
77,2463163512,0,-0.9278331,3.6001260000000004,10.007276,-0.43085077,0.23359108,0.23359108
78,2463163517,0,-0.8272809999999999,3.5067562999999993,10.282597,-0.43085077,0.23359108,0.23359108
79,2463163522,0,-0.8272809999999999,3.5067562999999993,10.282597,-0.36548826,0.24580838,0.24580838
80,2463163527,0,-0.7985518,3.499574,10.038399,-0.36548826,0.24580838,0.24580838
81,2463163537,0,-0.683635,3.6216730000000004,9.377628,-0.36548826,0.24580838,0.24580838
82,2463163532,0,-0.683635,3.6216730000000004,9.377628,-0.30684525,0.25863653,0.25863653
83,2463163542,0,-0.683635,3.6216730000000004,9.377628,-0.27385855,0.26352346,0.26352346
84,2463163547,0,-0.5399891,3.8323538,8.745586,-0.27385855,0.26352346,0.26352346
85,2463163552,0,-0.5399891,3.8323538,8.745586,-0.26897162,0.24825184,0.24825184
86,2463163556,0,-0.3556435,4.035851999999999,8.372106,-0.26897162,0.24825184,0.24825184
87,2463163566,0,-0.3484612,4.0861279999999995,8.326619,-0.26897162,0.24825184,0.24825184
88,2463163561,0,-0.3484612,4.0861279999999995,8.326619,-0.28057805,0.20976736,0.20976736
89,2463163571,0,-0.3484612,4.0861279999999995,8.326619,-0.29523879999999997,0.15967645,0.15967645
90,2463163576,0,-0.45380157,4.028669399999999,8.546876,-0.29523879999999997,0.15967645,0.15967645
91,2463163581,0,-0.45380157,4.028669399999999,8.546876,-0.30195832,0.11325073,0.11325073
92,2463163585,0,-0.5567478,3.9759995999999997,9.011331,-0.30195832,0.11325073,0.11325073
93,2463163590,0,-0.5567478,3.9759995999999997,9.011331,-0.29462793,0.083929226,0.083929226
94,2463163595,0,-0.6740586999999999,3.887418,9.442269,-0.29462793,0.083929226,0.083929226
95,2463163600,0,-0.6740586999999999,3.887418,9.442269,-0.27874544,0.07843144,0.07843144
96,2463163605,0,-0.69081736,3.7988362,9.617038,-0.27874544,0.07843144,0.07843144
97,2463163609,0,-0.69081736,3.7988362,9.617038,-0.26713902,0.082707494,0.082707494
98,2463163614,0,-0.64772356,3.7868657,9.755894999999999,-0.26713902,0.082707494,0.082707494
99,2463163619,0,-0.64772356,3.7868657,9.755894999999999,-0.27141508,0.083929226,0.083929226
100,2463163624,0,-0.64772356,3.8682654000000003,9.86363,-0.27141508,0.083929226,0.083929226
101,2463163629,0,-0.64772356,3.8682654000000003,9.86363,-0.2866867,0.082707494,0.082707494
102,2463163633,0,-0.6596941,3.9831822,10.052764,-0.2866867,0.082707494,0.082707494
103,2463163638,0,-0.6596941,3.9831822,10.052764,-0.30256918,0.07843144,0.07843144
104,2463163643,0,-0.5711124,3.9927585,10.423849,-0.30256918,0.07843144,0.07843144
105,2463163648,0,-0.5711124,3.9927585,10.423849,-0.28974099999999997,0.07293366,0.07293366
106,2463163653,0,-0.48971307,3.880236,10.629742,-0.28974099999999997,0.07293366,0.07293366
107,2463163658,0,-0.48971307,3.880236,10.629742,-0.23720665,0.06315983,0.06315983
108,2463163662,0,-0.42267829999999995,3.762925,10.419061,-0.23720665,0.06315983,0.06315983
109,2463163667,0,-0.42267829999999995,3.762925,10.419061,-0.16634634,0.043001294,0.043001294
110,2463163672,0,-0.42267829999999995,3.8275654,9.985729,-0.16634634,0.043001294,0.043001294
111,2463163677,0,-0.42267829999999995,3.8275654,9.985729,-0.10220555,0.022231894,0.022231894
112,2463163682,0,-0.43225467,3.8993886,9.308199,-0.10220555,0.022231894,0.022231894
113,2463163686,0,-0.43225467,3.8993886,9.308199,-0.071662314,0.0026842222999999997,0.0026842222999999997
114,2463163691,0,-0.38916090000000003,4.0238814,8.903596,-0.071662314,0.0026842222999999997,0.0026842222999999997
115,2463163696,0,-0.38916090000000003,4.0238814,8.903596,-0.091209985,-0.029080743,-0.029080743
116,2463163701,0,-0.41310188,4.0933104,8.925142999999998,-0.091209985,-0.029080743,-0.029080743
117,2463163706,0,-0.41310188,4.0933104,8.925142999999998,-0.14252262,-0.06817609,-0.06817609
118,2463163710,0,-0.5112599,4.0526104,9.233982000000001,-0.14252262,-0.06817609,-0.06817609
119,2463163715,0,-0.5112599,4.0526104,9.233982000000001,-0.20727429,-0.104217105,-0.104217105
120,2463163720,0,-0.66448224,3.889812,9.600278999999999,-0.20727429,-0.104217105,-0.104217105
121,2463163730,0,-0.8105222,3.6599786,10.026428999999998,-0.20727429,-0.104217105,-0.104217105
122,2463163725,0,-0.8105222,3.6599786,10.026428999999998,-0.26469555,-0.12132132,-0.12132132
123,2463163735,0,-0.8105222,3.6599786,10.026428999999998,-0.29768226,-0.111547485,-0.111547485
124,2463163739,0,-0.9230449000000001,3.5259089999999995,10.316115,-0.29768226,-0.111547485,-0.111547485
125,2463163744,0,-0.9230449000000001,3.5259089999999995,10.316115,-0.3044018,-0.087112896,-0.087112896
126,2463163749,0,-0.9709269,3.4588742,10.495672,-0.3044018,-0.087112896,-0.087112896
127,2463163754,0,-0.9709269,3.4588742,10.495672,-0.28363237,-0.06267831,-0.06267831
128,2463163759,0,-0.94938004,3.4397216,10.433425,-0.28363237,-0.06267831,-0.06267831
129,2463163763,0,-0.94938004,3.4397216,10.433425,-0.24514789999999997,-0.04435236,-0.04435236
130,2463163768,0,-0.8943156999999999,3.425357,10.215562,-0.24514789999999997,-0.04435236,-0.04435236
131,2463163773,0,-0.8943156999999999,3.425357,10.215562,-0.19994389999999998,-0.032135066000000004,-0.032135066000000004
132,2463163778,0,-0.6596941,3.5642145,9.96897,-0.19994389999999998,-0.032135066000000004,-0.032135066000000004
133,2463163783,0,-0.6596941,3.5642145,9.96897,-0.15901597,-0.034578525,-0.034578525
134,2463163787,0,-0.3652199,3.7437720000000003,9.851659,-0.15901597,-0.034578525,-0.034578525
135,2463163792,0,-0.3652199,3.7437720000000003,9.851659,-0.122974955,-0.06878696,-0.06878696
136,2463163797,0,-0.24551497,3.8108068,9.736742999999999,-0.122974955,-0.06878696,-0.06878696
137,2463163802,0,-0.24551497,3.8108068,9.736742999999999,-0.08754479999999999,-0.12559737,-0.12559737
138,2463163807,0,-0.37000809999999995,3.6887078,9.5787325,-0.08754479999999999,-0.12559737,-0.12559737
139,2463163812,0,-0.37000809999999995,3.6887078,9.5787325,-0.053336367,-0.17813174,-0.17813174
140,2463163816,0,-0.6118121,3.4923917999999996,9.37284,-0.053336367,-0.17813174,-0.17813174
141,2463163821,0,-0.6118121,3.4923917999999996,9.37284,-0.027069185,-0.20989670000000002,-0.20989670000000002
142,2463163826,0,-0.88952756,3.252982,9.183705999999999,-0.027069185,-0.20989670000000002,-0.20989670000000002
143,2463163831,0,-0.88952756,3.252982,9.183705999999999,-0.016684484,-0.21050757,-0.21050757
144,2463163836,0,-1.0786613,3.1189122000000005,8.992178,-0.016684484,-0.21050757,-0.21050757
145,2463163845,0,-1.1792135,3.0758185,8.85332,-0.016684484,-0.21050757,-0.21050757
146,2463163840,0,-1.1792135,3.0758185,8.85332,-0.030123507999999997,-0.18851644,-0.18851644
147,2463163850,0,-1.1792135,3.0758185,8.85332,-0.06799713,-0.15675147,-0.15675147
148,2463163855,0,-1.1840017,3.083001,8.817409,-0.06799713,-0.15675147,-0.15675147
149,2463163864,0,-1.0020502,3.159612,8.917961,-0.06799713,-0.15675147,-0.15675147
150,2463163860,0,-1.0020502,3.159612,8.917961,-0.11320112,-0.114601806,-0.114601806
151,2463163869,0,-1.0020502,3.159612,8.917961,-0.15107474,-0.07611733,-0.07611733
152,2463163874,0,-0.7027879,3.2984697999999995,9.044848,-0.15107474,-0.07611733,-0.07611733
153,2463163879,0,-0.7027879,3.2984697999999995,9.044848,-0.17123327,-0.06390004,-0.06390004
154,2463163884,0,-0.44661927,3.4445097000000002,9.090336,-0.17123327,-0.06390004,-0.06390004
155,2463163888,0,-0.44661927,3.4445097000000002,9.090336,-0.17917451,-0.08161511,-0.08161511
156,2463163893,0,-0.30776155,3.5594265,9.111883,-0.17917451,-0.08161511,-0.08161511
157,2463163898,0,-0.30776155,3.5594265,9.111883,-0.17673105,-0.11276922,-0.11276922
158,2463163903,0,-0.33649075,3.5546384,9.157371000000001,-0.17673105,-0.11276922,-0.11276922
159,2463163908,0,-0.33649075,3.5546384,9.157371000000001,-0.16940068,-0.14392331,-0.14392331
160,2463163913,0,-0.38676679999999997,3.5115445,9.262711,-0.16940068,-0.14392331,-0.14392331
161,2463163917,0,-0.38676679999999997,3.5115445,9.262711,-0.1687898,-0.16896877,-0.16896877
162,2463163922,0,-0.42028418,3.3726868999999997,9.46621,-0.1687898,-0.16896877,-0.16896877
163,2463163932,0,-0.50647175,3.231435,9.715196,-0.1687898,-0.16896877,-0.16896877
164,2463163927,0,-0.50647175,3.231435,9.715196,-0.17428759,-0.18118607,-0.18118607
165,2463163937,0,-0.50647175,3.231435,9.715196,-0.18406142,-0.17935348,-0.17935348
166,2463163941,0,-0.48971307,3.2266470000000003,9.961788,-0.18406142,-0.17935348,-0.17935348
167,2463163946,0,-0.48971307,3.2266470000000003,9.961788,-0.20544168,-0.17996433,-0.17996433
168,2463163951,0,-0.5304127,3.1691882999999996,10.19641,-0.20544168,-0.17996433,-0.17996433
169,2463163956,0,-0.5304127,3.1691882999999996,10.19641,-0.23109801,-0.18362953,-0.18362953
170,2463163961,0,-0.6405413000000001,3.0590599,10.268233,-0.23109801,-0.18362953,-0.18362953
171,2463163965,0,-0.6405413000000001,3.0590599,10.268233,-0.24881309999999998,-0.17691001,-0.17691001
172,2463163970,0,-0.8105222,2.920202,10.19641,-0.24881309999999998,-0.17691001,-0.17691001
173,2463163975,0,-0.8105222,2.920202,10.19641,-0.24575876,-0.15675147,-0.15675147
174,2463163980,0,-0.93501544,2.8364086,10.014458,-0.24575876,-0.15675147,-0.15675147
175,2463163985,0,-0.93501544,2.8364086,10.014458,-0.21704812,-0.13109516,-0.13109516
176,2463163990,0,-0.96374464,2.8172557,9.854054,-0.21704812,-0.13109516,-0.13109516
177,2463163994,0,-0.96374464,2.8172557,9.854054,-0.1687898,-0.10971489,-0.10971489
178,2463163999,0,-0.9230449000000001,2.8340147,9.710408000000001,-0.1687898,-0.10971489,-0.10971489
179,2463164004,0,-0.9230449000000001,2.8340147,9.710408000000001,-0.116866305,-0.095665,-0.095665
180,2463164009,0,-0.8536161,2.8507732999999997,9.550003,-0.116866305,-0.095665,-0.095665
181,2463164014,0,-0.8536161,2.8507732999999997,9.550003,-0.07593837,-0.087112896,-0.087112896
182,2463164018,0,-0.74827564,2.87232,9.454239,-0.07593837,-0.087112896,-0.087112896
183,2463164023,0,-0.74827564,2.87232,9.454239,-0.05516896,-0.0852803,-0.0852803
184,2463164028,0,-0.61899436,2.939355,9.430297999999999,-0.05516896,-0.0852803,-0.0852803
185,2463164033,0,-0.61899436,2.939355,9.430297999999999,-0.05883415,-0.093221545,-0.093221545
186,2463164038,0,-0.54956555,2.9369607,9.561973,-0.05883415,-0.093221545,-0.093221545
187,2463164042,0,-0.54956555,2.9369607,9.561973,-0.07654923,-0.10788230000000001,-0.10788230000000001
188,2463164047,0,-0.60941803,2.8220441000000003,9.657737,-0.07654923,-0.10788230000000001,-0.10788230000000001
189,2463164052,0,-0.60941803,2.8220441000000003,9.657737,-0.09365345,-0.11582354,-0.11582354
190,2463164057,0,-0.76264036,2.7190979,9.619432000000002,-0.09365345,-0.11582354,-0.11582354
191,2463164062,0,-0.76264036,2.7190979,9.619432000000002,-0.10403815,-0.10727143,-0.10727143
192,2463164067,0,-0.9158627,2.6855803,9.590703,-0.10403815,-0.10727143,-0.10727143
193,2463164071,0,-0.9158627,2.6855803,9.590703,-0.10342728,-0.0852803,-0.0852803
194,2463164076,0,-0.9709269,2.6760040000000003,9.528456,-0.10342728,-0.0852803,-0.0852803
195,2463164081,0,-0.9709269,2.6760040000000003,9.528456,-0.09059912,-0.05962398,-0.05962398
196,2463164086,0,-0.94459176,2.7310684,9.4087515,-0.09059912,-0.05962398,-0.05962398
197,2463164091,0,-0.94459176,2.7310684,9.4087515,-0.07227318,-0.039465442,-0.039465442
198,2463164095,0,-0.9086803,2.7621915,9.389598,-0.07227318,-0.039465442,-0.039465442
199,2463164100,0,-0.9086803,2.7621915,9.389598,-0.0527255,-0.02602642,-0.02602642
200,2463164105,0,-0.8799511000000001,2.8076797000000004,9.387203999999999,-0.0527255,-0.02602642,-0.02602642
201,2463164110,0,-0.8799511000000001,2.8076797000000004,9.387203999999999,-0.03928648,-0.015030853,-0.015030853
202,2463164115,0,-0.82009864,2.8483791000000003,9.380022,-0.03928648,-0.015030853,-0.015030853
203,2463164119,0,-0.82009864,2.8483791000000003,9.380022,-0.03562129,-0.0064787487,-0.0064787487
204,2463164124,0,-0.7027879,2.8890789,9.353686999999999,-0.03562129,-0.0064787487,-0.0064787487
205,2463164129,0,-0.7027879,2.8890789,9.353686999999999,-0.042951666,-0.0028135602,-0.0028135602
206,2463164134,0,-0.6381471,2.941749,9.315381,-0.042951666,-0.0028135602,-0.0028135602
207,2463164139,0,-0.6381471,2.941749,9.315381,-0.058223285,-0.0070896134999999996,-0.0070896134999999996
208,2463164143,0,-0.6596941,3.0207542999999997,9.2268,-0.058223285,-0.0070896134999999996,-0.0070896134999999996
209,2463164148,0,-0.6596941,3.0207542999999997,9.2268,-0.07960356,-0.01441999,-0.01441999
210,2463164153,0,-0.77700484,3.1476417000000003,9.056819,-0.07960356,-0.01441999,-0.01441999
211,2463164158,0,-0.77700484,3.1476417000000003,9.056819,-0.10464901,-0.024193825,-0.024193825
212,2463164163,0,-0.93022716,3.2745287,8.874867,-0.10464901,-0.024193825,-0.024193825
213,2463164168,0,-0.93022716,3.2745287,8.874867,-0.13580312,-0.03518939,-0.03518939
214,2463164172,0,-1.0930258999999998,3.3942335,8.709674,-0.13580312,-0.03518939,-0.03518939
215,2463164177,0,-1.0930258999999998,3.3942335,8.709674,-0.17673105,-0.04679582,-0.04679582
216,2463164182,0,-1.2869478,3.4397216,8.736009,-0.17673105,-0.04679582,-0.04679582
217,2463164187,0,-1.2869478,3.4397216,8.736009,-0.22193503,-0.054126195999999994,-0.054126195999999994
218,2463164192,0,-1.3444061999999999,3.4373275999999997,8.958661,-0.22193503,-0.054126195999999994,-0.054126195999999994
219,2463164196,0,-1.3444061999999999,3.4373275999999997,8.958661,-0.26713902,-0.06390004,-0.06390004
220,2463164201,0,-1.3659533000000001,3.308046,9.413539,-0.26713902,-0.06390004,-0.06390004
221,2463164206,0,-1.3659533000000001,3.308046,9.413539,-0.30256918,-0.0748956,-0.0748956
222,2463164211,0,-1.3946823999999998,3.0590599,10.004882,-0.30256918,-0.0748956,-0.0748956
223,2463164216,0,-1.3946823999999998,3.0590599,10.004882,-0.31539735,-0.07184128,-0.07184128
224,2463164220,0,-1.4281998,2.7717680000000002,10.601011999999999,-0.31539735,-0.07184128,-0.07184128
225,2463164225,0,-1.4281998,2.7717680000000002,10.601011999999999,-0.29646054,-0.052293602,-0.052293602
226,2463164230,0,-1.432988,2.5108113,11.063073,-0.29646054,-0.052293602,-0.052293602
227,2463164235,0,-1.432988,2.5108113,11.063073,-0.25064567,-0.016863449,-0.016863449
228,2463164240,0,-1.409047,2.2857661,11.36473,-0.25064567,-0.016863449,-0.016863449
229,2463164245,0,-1.409047,2.2857661,11.36473,-0.17978537,0.030173134,0.030173134
230,2463164249,0,-1.2773715,2.1564846,11.486829,-0.17978537,0.030173134,0.030173134
231,2463164254,0,-1.2773715,2.1564846,11.486829,-0.09426431,0.08026404,0.08026404
232,2463164259,0,-1.0834496,2.1756372,11.326424000000001,-0.09426431,0.08026404,0.08026404
233,2463164264,0,-1.0834496,2.1756372,11.326424000000001,-0.013019295,0.12424629999999999,0.12424629999999999
234,2463164269,0,-0.94938004,2.2714014,11.039132,-0.013019295,0.12424629999999999,0.12424629999999999
235,2463164273,0,-0.94938004,2.2714014,11.039132,0.05234323,0.15906559,0.15906559
236,2463164278,0,-0.86319244,2.431806,10.708747,0.05234323,0.15906559,0.15906559
237,2463164283,0,-0.86319244,2.431806,10.708747,0.096936345,0.19083056,0.19083056
238,2463164288,0,-0.77700484,2.5969987,10.373573,0.096936345,0.19083056,0.19083056
239,2463164297,0,-0.6405413000000001,2.8268322999999995,10.146134,0.096936345,0.19083056,0.19083056
240,2463164293,0,-0.6405413000000001,2.8268322999999995,10.146134,0.12442526,0.21831946,0.21831946
241,2463164302,0,-0.6405413000000001,2.8268322999999995,10.146134,0.14275120000000002,0.23725627,0.23725627
242,2463164307,0,-0.44422520000000004,2.9872367000000004,9.971364,0.14275120000000002,0.23725627,0.23725627
243,2463164312,0,-0.44422520000000004,2.9872367000000004,9.971364,0.15741195,0.23969974,0.23969974
244,2463164317,0,-0.28142646,3.1045477000000004,9.935453,0.15741195,0.23969974,0.23969974
245,2463164322,0,-0.28142646,3.1045477000000004,9.935453,0.16779666,0.22503898,0.22503898
246,2463164326,0,-0.15693332,3.2410113999999997,9.96897,0.16779666,0.22503898,0.22503898
247,2463164331,0,-0.15693332,3.2410113999999997,9.96897,0.17451617,0.19755006,0.19755006
248,2463164336,0,0.0034713,3.279317,9.86363,0.17451617,0.19755006,0.19755006
249,2463164341,0,0.0034713,3.279317,9.86363,0.15924455,0.15906559,0.15906559
250,2463164346,0,0.02022998,3.3032577000000005,9.9163,0.15924455,0.15906559,0.15906559
251,2463164350,0,0.02022998,3.3032577000000005,9.9163,0.1219818,0.11935938,0.11935938
252,2463164355,0,-0.10186905,3.2864992999999996,10.318508999999999,0.1219818,0.11935938,0.11935938
253,2463164360,0,-0.10186905,3.2864992999999996,10.318508999999999,0.09815808,0.09064874,0.09064874
254,2463164365,0,-0.25748548,3.1356710999999997,10.543553999999999,0.09815808,0.09064874,0.09064874
255,2463164370,0,-0.25748548,3.1356710999999997,10.543553999999999,0.103044994,0.07904231,0.07904231
256,2463164374,0,-0.37719040000000004,2.9944189999999997,10.502854,0.103044994,0.07904231,0.07904231
257,2463164379,0,-0.37719040000000004,2.9944189999999997,10.502854,0.125647,0.07965317,0.07965317
258,2463164384,0,-0.50168353,2.9609017000000004,10.265839,0.125647,0.07965317,0.07965317
259,2463164389,0,-0.50168353,2.9609017000000004,10.265839,0.16046628,0.08515096,0.08515096
260,2463164394,0,-0.5830829000000001,2.9561136,9.832507000000001,0.16046628,0.08515096,0.08515096
261,2463164398,0,-0.5830829000000001,2.9561136,9.832507000000001,0.18673345,0.09248133,0.09248133
262,2463164403,0,-0.5782946999999999,2.989631,9.401569,0.18673345,0.09248133,0.09248133
263,2463164408,0,-0.5782946999999999,2.989631,9.401569,0.1861226,0.091259606,0.091259606
264,2463164413,0,-0.60702384,3.013572,9.164553,0.1861226,0.091259606,0.091259606
265,2463164418,0,-0.60702384,3.013572,9.164553,0.15191418,0.08454009,0.08454009
266,2463164423,0,-0.7027879,3.0039957000000004,9.205252999999999,0.15191418,0.08454009,0.08454009
267,2463164427,0,-0.7027879,3.0039957000000004,9.205252999999999,0.08838424,0.082707494,0.082707494
268,2463164432,0,-0.7865813,2.9609017000000004,9.447057000000001,0.08838424,0.082707494,0.082707494
269,2463164437,0,-0.7865813,2.9609017000000004,9.447057000000001,0.015691346999999998,0.08698355,0.08698355
270,2463164442,0,-0.9278331,2.9537196,9.772654,0.015691346999999998,0.08698355,0.08698355
271,2463164447,0,-0.9278331,2.9537196,9.772654,-0.049060315,0.09675738,0.09675738
272,2463164451,0,-1.0523262,2.9513254,10.222745,-0.049060315,0.09675738,0.09675738
273,2463164456,0,-1.0523262,2.9513254,10.222745,-0.088155665,0.11141814,0.11141814
274,2463164461,0,-1.0475379999999999,2.8627439,10.838028,-0.088155665,0.11141814,0.11141814
275,2463164466,0,-1.0475379999999999,2.8627439,10.838028,-0.07838183,0.12852235,0.12852235
276,2463164471,0,-0.9709269,2.6927629,11.388671,-0.07838183,0.12852235,0.12852235
277,2463164475,0,-0.9709269,2.6927629,11.388671,-0.014241025,0.14501570000000003,0.14501570000000003
278,2463164480,0,-0.8847393,2.5419345,11.707086,-0.014241025,0.14501570000000003,0.14501570000000003
279,2463164485,0,-0.8847393,2.5419345,11.707086,0.08410819,0.16334164,0.16334164
280,2463164490,0,-0.8871334999999999,2.5347524,11.790878999999999,0.08410819,0.16334164,0.16334164
281,2463164495,0,-0.8871334999999999,2.5347524,11.790878999999999,0.19345297,0.18960883,0.18960883
282,2463164500,0,-0.84643376,2.6353042,11.620898,0.19345297,0.18960883,0.18960883
283,2463164504,0,-0.84643376,2.6353042,11.620898,0.29058045,0.21404341,0.21404341
284,2463164509,0,-0.77700484,2.6831862999999996,11.139685,0.29058045,0.21404341,0.21404341
285,2463164514,0,-0.77700484,2.6831862999999996,11.139685,0.35777557,0.23298022,0.23298022
286,2463164519,0,-0.7650343000000001,2.67361,10.50046,0.35777557,0.23298022,0.23298022
287,2463164524,0,-0.7650343000000001,2.67361,10.50046,0.39992526,0.25497136,0.25497136
288,2463164528,0,-0.7674285,2.6903687,9.741531,0.39992526,0.25497136,0.25497136
289,2463164533,0,-0.7674285,2.6903687,9.741531,0.42558157,0.28001679999999995,0.28001679999999995
290,2463164538,0,-0.7722167,2.8388028,9.056819,0.42558157,0.28001679999999995,0.28001679999999995
291,2463164543,0,-0.7722167,2.8388028,9.056819,0.42680329999999994,0.29834273,0.29834273
292,2463164548,0,-0.76024616,2.9824486,8.623486999999999,0.42680329999999994,0.29834273,0.29834273
293,2463164552,0,-0.76024616,2.9824486,8.623486999999999,0.41458599999999995,0.3130035,0.3130035
294,2463164557,0,-0.58068883,3.1572177000000003,8.35056,0.41458599999999995,0.3130035,0.3130035
295,2463164562,0,-0.58068883,3.1572177000000003,8.35056,0.39564920000000003,0.31422523,0.31422523
296,2463164567,0,-0.32212612,3.2434056,8.261978,0.39564920000000003,0.31422523,0.31422523
297,2463164572,0,-0.32212612,3.2434056,8.261978,0.37671238,0.29284495,0.29284495
298,2463164576,0,-0.17848021,3.2721345,8.288313,0.37671238,0.29284495,0.29284495
299,2463164581,0,-0.17848021,3.2721345,8.288313,0.3571647,0.2623017,0.2623017
300,2463164586,0,-0.17608611,3.2984697999999995,8.566028,0.3571647,0.2623017,0.2623017
301,2463164591,0,-0.17608611,3.2984697999999995,8.566028,0.34433657,0.24275406,0.24275406
302,2463164596,0,-0.16890381,3.260164,8.956267,0.34433657,0.24275406,0.24275406
303,2463164601,0,-0.16890381,3.260164,8.956267,0.34372568,0.23542368,0.23542368
304,2463164605,0,-0.10426315,3.1620061,9.1334305,0.34372568,0.23542368,0.23542368
305,2463164615,0,-0.039622486,3.1548238,9.205252999999999,0.34372568,0.23542368,0.23542368
306,2463164610,0,-0.039622486,3.1548238,9.205252999999999,0.35533214,0.23359108,0.23359108
307,2463164620,0,-0.039622486,3.1548238,9.205252999999999,0.3748798,0.22931503,0.22931503
308,2463164625,0,0.025018185,3.2170702999999996,9.131036,0.3748798,0.22931503,0.22931503
309,2463164629,0,0.025018185,3.2170702999999996,9.131036,0.3852645,0.22503898,0.22503898
310,2463164634,0,0.14951131,3.3319871,8.872473,0.3852645,0.22503898,0.22503898
311,2463164639,0,0.14951131,3.3319871,8.872473,0.37671238,0.21159995,0.21159995
312,2463164644,0,0.23330477,3.425357,8.575605,0.37671238,0.21159995,0.21159995
313,2463164649,0,0.23330477,3.425357,8.575605,0.35472125,0.19144142,0.19144142
314,2463164653,0,0.24527529,3.5019681000000005,8.336195,0.35472125,0.19144142,0.19144142
315,2463164658,0,0.24527529,3.5019681000000005,8.336195,0.33211926,0.1676177,0.1676177
316,2463164663,0,0.23091069,3.5761849999999997,8.156637,0.33211926,0.1676177,0.1676177
317,2463164668,0,0.23091069,3.5761849999999997,8.156637,0.30829555,0.14012878,0.14012878
318,2463164673,0,0.2596399,3.6360376000000003,8.094391,0.30829555,0.14012878,0.14012878
319,2463164678,0,0.2596399,3.6360376000000003,8.094391,0.28263924,0.10653122,0.10653122
320,2463164682,0,0.26921624,3.7030722999999997,8.156637,0.28263924,0.10653122,0.10653122
321,2463164687,0,0.26921624,3.7030722999999997,8.156637,0.2514851,0.0723228,0.0723228
322,2463164692,0,0.24527529,3.7557425,8.202125,0.2514851,0.0723228,0.0723228
323,2463164697,0,0.24527529,3.7557425,8.202125,0.20811373,0.038114376,0.038114376
324,2463164702,0,0.24048707,3.8132010000000003,8.302678,0.20811373,0.038114376,0.038114376
325,2463164706,0,0.24048707,3.8132010000000003,8.302678,0.15069245,0.005127680999999999,0.005127680999999999
326,2463164711,0,0.21654609,3.8778415,8.508569999999999,0.15069245,0.005127680999999999,0.005127680999999999
327,2463164716,0,0.21654609,3.8778415,8.508569999999999,0.08349732,-0.025415555,-0.025415555
328,2463164721,0,0.23091069,3.880236,8.764739,0.08349732,-0.025415555,-0.025415555
329,2463164726,0,0.23091069,3.880236,8.764739,0.01874567,-0.056569654000000004,-0.056569654000000004
330,2463164730,0,0.19260511,3.8371418,8.879655,0.01874567,-0.056569654000000004,-0.056569654000000004
331,2463164735,0,0.19260511,3.8371418,8.879655,-0.044784263,-0.08405857,-0.08405857
332,2463164740,0,0.10162935,3.7988362,8.996966,-0.044784263,-0.08405857,-0.08405857
333,2463164750,0,0.010653600000000001,3.7174370000000003,9.336928,-0.044784263,-0.08405857,-0.08405857
334,2463164745,0,0.010653600000000001,3.7174370000000003,9.336928,-0.10587074,-0.10299538,-0.10299538
335,2463164755,0,0.010653600000000001,3.7174370000000003,9.336928,-0.13641398,-0.108493164,-0.108493164
336,2463164759,0,-0.07553396,3.6360376000000003,9.691255,-0.13641398,-0.108493164,-0.108493164
337,2463164764,0,-0.07553396,3.6360376000000003,9.691255,-0.12114236,-0.105438836,-0.105438836
338,2463164769,0,-0.17608611,3.5809733999999995,10.004882,-0.12114236,-0.105438836,-0.105438836
339,2463164774,0,-0.17608611,3.5809733999999995,10.004882,-0.05639069,-0.102384515,-0.102384515
340,2463164779,0,-0.30297333,3.523515,10.251474,-0.05639069,-0.102384515,-0.102384515
341,2463164783,0,-0.30297333,3.523515,10.251474,0.054175824000000004,-0.09688673,-0.09688673
342,2463164788,0,-0.35324943,3.4780269999999995,10.462155000000001,0.054175824000000004,-0.09688673,-0.09688673
343,2463164793,0,-0.35324943,3.4780269999999995,10.462155000000001,0.18917692,-0.08955635,-0.08955635
344,2463164798,0,-0.33649075,3.449298,10.426243,0.18917692,-0.08955635,-0.08955635
345,2463164803,0,-0.33649075,3.449298,10.426243,0.32295630000000003,-0.08650203,-0.08650203
346,2463164807,0,-0.27185005,3.4756331,9.947422999999999,0.32295630000000003,-0.08650203,-0.08650203
347,2463164812,0,-0.27185005,3.4756331,9.947422999999999,0.40969908,-0.09077808,-0.09077808
348,2463164817,0,-0.25748548,3.5642145,9.353686999999999,0.40969908,-0.09077808,-0.09077808
349,2463164822,0,-0.25748548,3.5642145,9.353686999999999,0.43169022,-0.09933019,-0.09933019
350,2463164827,0,-0.28142646,3.7222252,8.714463,0.43169022,-0.09933019,-0.09933019
351,2463164831,0,-0.28142646,3.7222252,8.714463,0.38221017,-0.111547485,-0.111547485
352,2463164836,0,-0.25509137,3.8826299,8.408017999999998,0.38221017,-0.111547485,-0.111547485
353,2463164841,0,-0.25509137,3.8826299,8.408017999999998,0.28386095,-0.13109516,-0.13109516
354,2463164846,0,-0.31733793,3.8778415,8.534905,0.28386095,-0.13109516,-0.13109516
355,2463164851,0,-0.31733793,3.8778415,8.534905,0.18978779,-0.14514504,-0.14514504
356,2463164856,0,-0.3963432,3.7557425,8.745586,0.18978779,-0.14514504,-0.14514504
357,2463164860,0,-0.3963432,3.7557425,8.745586,0.12931217,-0.15125369,-0.15125369
358,2463164865,0,-0.56153595,3.547456,9.030484,0.12931217,-0.15125369,-0.15125369
359,2463164870,0,-0.56153595,3.547456,9.030484,0.11709489,-0.14209072,-0.14209072
360,2463164875,0,-0.7698225999999999,3.4109924,9.1861,0.11709489,-0.14209072,-0.14209072
361,2463164880,0,-0.7698225999999999,3.4109924,9.1861,0.14824899,-0.11582354,-0.11582354
362,2463164884,0,-0.90628624,3.3678985,9.222011,0.14824899,-0.11582354,-0.11582354
363,2463164889,0,-0.90628624,3.3678985,9.222011,0.20322679999999999,-0.08466943,-0.08466943
364,2463164894,0,-0.90628624,3.3918394999999997,9.138218,0.20322679999999999,-0.08466943,-0.08466943
365,2463164899,0,-0.90628624,3.3918394999999997,9.138218,0.25881550000000003,-0.05595879,-0.05595879
366,2463164904,0,-0.7841872,3.4684508000000003,8.973025,0.25881550000000003,-0.05595879,-0.05595879
367,2463164908,0,-0.7841872,3.4684508000000003,8.973025,0.28813702,-0.041298036,-0.041298036
368,2463164913,0,-0.56153595,3.5761849999999997,8.826985,0.28813702,-0.041298036,-0.041298036
369,2463164918,0,-0.56153595,3.5761849999999997,8.826985,0.27530885,-0.040687174,-0.040687174
370,2463164923,0,-0.33888483,3.6958900000000003,8.712067999999999,0.27530885,-0.040687174,-0.040687174
371,2463164928,0,-0.33888483,3.6958900000000003,8.712067999999999,0.22094189,-0.05595879,-0.05595879
372,2463164933,0,-0.22875628,3.7246193999999995,8.594758,0.22094189,-0.05595879,-0.05595879
373,2463164937,0,-0.22875628,3.7246193999999995,8.594758,0.14763811,-0.07856079,-0.07856079
374,2463164942,0,-0.29579103,3.7318015,8.609122,0.14763811,-0.07856079,-0.07856079
375,2463164947,0,-0.29579103,3.7318015,8.609122,0.08594078,-0.0938324,-0.0938324
376,2463164952,0,-0.3987373,3.6695550000000003,8.786285000000001,0.08594078,-0.0938324,-0.0938324
377,2463164957,0,-0.3987373,3.6695550000000003,8.786285000000001,0.06333879,-0.09810846,-0.09810846
378,2463164961,0,-0.48013666,3.5522440000000004,8.872473,0.06333879,-0.09810846,-0.09810846
379,2463164966,0,-0.48013666,3.5522440000000004,8.872473,0.080443,-0.095054135,-0.095054135
380,2463164971,0,-0.55195963,3.4947858,8.865291000000001,0.080443,-0.095054135,-0.095054135
381,2463164976,0,-0.55195963,3.4947858,8.865291000000001,0.13114478,-0.0852803,-0.0852803
382,2463164981,0,-0.56153595,3.54985,8.769527,0.13114478,-0.0852803,-0.0852803
383,2463164985,0,-0.56153595,3.54985,8.769527,0.19711816,-0.07733906,-0.07733906
384,2463164990,0,-0.47774255,3.6001260000000004,8.652216000000001,0.19711816,-0.07733906,-0.07733906
385,2463164995,0,-0.47774255,3.6001260000000004,8.652216000000001,0.25515032,-0.08039338,-0.08039338
386,2463165000,0,-0.28142646,3.6551902000000003,8.479841,0.25515032,-0.08039338,-0.08039338
387,2463165005,0,-0.28142646,3.6551902000000003,8.479841,0.28019577,-0.095054135,-0.095054135
388,2463165010,0,-0.16650972,3.6815255,8.410411999999999,0.28019577,-0.095054135,-0.095054135
389,2463165014,0,-0.16650972,3.6815255,8.410411999999999,0.26981106,-0.113380075,-0.113380075
390,2463165019,0,-0.13059823,3.7389839,8.527723,0.26981106,-0.113380075,-0.113380075
391,2463165024,0,-0.13059823,3.7389839,8.527723,0.24354389999999998,-0.1286517,-0.1286517
392,2463165029,0,-0.13778053,3.7270133000000003,8.774315,0.24354389999999998,-0.1286517,-0.1286517
393,2463165034,0,-0.13778053,3.7270133000000003,8.774315,0.2258288,-0.14025813,-0.14025813
394,2463165038,0,-0.16650972,3.6767373,8.915567,0.2258288,-0.14025813,-0.14025813
395,2463165043,0,-0.16650972,3.6767373,8.915567,0.2258288,-0.14147985,-0.14147985
396,2463165048,0,-0.22875628,3.6791312999999994,8.781497,0.2258288,-0.14147985,-0.14147985
397,2463165053,0,-0.22875628,3.6791312999999994,8.781497,0.23987868,-0.12742996,-0.12742996
398,2463165058,0,-0.22157398,3.7341957000000003,8.386471,0.23987868,-0.12742996,-0.12742996
399,2463165062,0,-0.22157398,3.7341957000000003,8.386471,0.25392857,-0.10666057,-0.10666057
400,2463165067,0,-0.14735693,3.9736054,7.905257000000001,0.25392857,-0.10666057,-0.10666057
401,2463165072,0,-0.14735693,3.9736054,7.905257000000001,0.25392857,-0.095054135,-0.095054135
402,2463165077,0,0.013047695,4.22738,7.605995,0.25392857,-0.095054135,-0.095054135
403,2463165082,0,0.013047695,4.22738,7.605995,0.23743524,-0.101162784,-0.101162784
404,2463165086,0,0.22133428,4.423696,7.629936,0.23743524,-0.101162784,-0.101162784
405,2463165091,0,0.22133428,4.423696,7.629936,0.20994632,-0.124986514,-0.124986514
406,2463165096,0,0.40328583,4.514672,7.919622400000001,0.20994632,-0.124986514,-0.124986514
407,2463165101,0,0.40328583,4.514672,7.919622400000001,0.18062481,-0.1579732,-0.1579732
408,2463165106,0,0.47750285,4.521854,8.379289,0.18062481,-0.1579732,-0.1579732
409,2463165111,0,0.47750285,4.521854,8.379289,0.16046628,-0.19340336,-0.19340336
410,2463165115,0,0.46313825,4.490730999999999,8.755162,0.16046628,-0.19340336,-0.19340336
411,2463165120,0,0.46313825,4.490730999999999,8.755162,0.13908601,-0.22639005,-0.22639005
412,2463165125,0,0.4200445,4.438060299999999,9.035272,0.13908601,-0.22639005,-0.22639005
413,2463165130,0,0.4200445,4.438060299999999,9.035272,0.115262285,-0.2532681,-0.2532681
414,2463165135,0,0.37455663,4.366237,9.243558,0.115262285,-0.2532681,-0.2532681
415,2463165139,0,0.37455663,4.366237,9.243558,0.09815808,-0.27464837,-0.27464837
416,2463165144,0,0.30033952,4.323144,9.413539,0.09815808,-0.27464837,-0.27464837
417,2463165149,0,0.30033952,4.323144,9.413539,0.096936345,-0.2893091,-0.2893091
418,2463165154,0,0.25724575,4.299202999999999,9.468604,0.096936345,-0.2893091,-0.2893091
419,2463165159,0,0.25724575,4.299202999999999,9.468604,0.11953834,-0.29786122,-0.29786122
420,2463165163,0,0.25724575,4.28005,9.420722,0.11953834,-0.29786122,-0.29786122
421,2463165168,0,0.25724575,4.28005,9.420722,0.16046628,-0.30824593,-0.30824593
422,2463165173,0,0.27400446,4.318355,9.212435000000001,0.16046628,-0.30824593,-0.30824593
423,2463165183,0,0.23091069,4.3877845,9.1334305,0.16046628,-0.30824593,-0.30824593
424,2463165178,0,0.23091069,4.3877845,9.1334305,0.20994632,-0.32168496,-0.32168496
425,2463165188,0,0.23091069,4.3877845,9.1334305,0.26492414,-0.33695656,-0.33695656
426,2463165192,0,0.27639857,4.459607,9.042454,0.26492414,-0.33695656,-0.33695656
427,2463165197,0,0.27639857,4.459607,9.042454,0.31684765,-0.35650423,-0.35650423
428,2463165202,0,0.33146283,4.4428487,8.93472,0.31684765,-0.35650423,-0.35650423
429,2463165207,0,0.33146283,4.4428487,8.93472,0.34800175,-0.38277143,-0.38277143
430,2463165212,0,0.35300967,4.459607,8.731221000000001,0.34800175,-0.38277143,-0.38277143
431,2463165216,0,0.35300967,4.459607,8.731221000000001,0.34494743,-0.41087120000000005,-0.41087120000000005
432,2463165221,0,0.31949237,4.469183999999999,8.657003999999999,0.34494743,-0.41087120000000005,-0.41087120000000005
433,2463165226,0,0.31949237,4.469183999999999,8.657003999999999,0.32539976,-0.43530577,-0.43530577
434,2463165231,0,0.38173887,4.507489,8.585181,0.32539976,-0.43530577,-0.43530577
435,2463165236,0,0.38173887,4.507489,8.585181,0.29485652,-0.46157297,-0.46157297
436,2463165240,0,0.36019203,4.545795,8.261978,0.29485652,-0.46157297,-0.46157297
437,2463165245,0,0.36019203,4.545795,8.261978,0.2514851,-0.48539668,-0.48539668
438,2463165250,0,0.26682216,4.5481887,8.087209,0.2514851,-0.48539668,-0.48539668
439,2463165255,0,0.26682216,4.5481887,8.087209,0.21483324,-0.5049443,-0.5049443
440,2463165260,0,0.10641754,4.564947599999999,8.022568,0.21483324,-0.5049443,-0.5049443
441,2463165265,0,0.10641754,4.564947599999999,8.022568,0.1946747,-0.52204853,-0.52204853
442,2463165269,0,-0.09947495,4.5003066,7.965110000000001,0.1946747,-0.52204853,-0.52204853
443,2463165274,0,-0.09947495,4.5003066,7.965110000000001,0.18551174,-0.5354876000000001,-0.5354876000000001
444,2463165279,0,-0.30297333,4.380602400000001,7.9435625,0.18551174,-0.5354876000000001,-0.5354876000000001
445,2463165284,0,-0.30297333,4.380602400000001,7.9435625,0.17268357,-0.5354876000000001,-0.5354876000000001
446,2463165289,0,-0.47534847,4.2728677,7.9339867,0.17268357,-0.5354876000000001,-0.5354876000000001
447,2463165298,0,-0.60462976,4.2034388,7.996233,0.17268357,-0.5354876000000001,-0.5354876000000001
448,2463165293,0,-0.60462976,4.2034388,7.996233,0.14824899,-0.5214377,-0.5214377
449,2463165303,0,-0.60462976,4.2034388,7.996233,0.115262285,-0.49578140000000004,-0.49578140000000004
450,2463165308,0,-0.63575304,4.205833,8.053692,0.115262285,-0.49578140000000004,-0.49578140000000004
451,2463165313,0,-0.63575304,4.205833,8.053692,0.08166472599999999,-0.46951422,-0.46951422
452,2463165317,0,-0.5567478,4.2393503,8.027356,0.08166472599999999,-0.46951422,-0.46951422
453,2463165322,0,-0.5567478,4.2393503,8.027356,0.042569395,-0.45241000000000003,-0.45241000000000003
454,2463165327,0,-0.47295433,4.301596599999999,7.981868700000001,0.042569395,-0.45241000000000003,-0.45241000000000003
455,2463165332,0,-0.47295433,4.301596599999999,7.981868700000001,-0.0020237311,-0.44507962,-0.44507962
456,2463165337,0,-0.46337795,4.339902400000001,8.089603,-0.0020237311,-0.44507962,-0.44507962
457,2463165341,0,-0.46337795,4.339902400000001,8.089603,-0.040508207000000004,-0.4401927,-0.4401927
458,2463165346,0,-0.49928942,4.373419999999999,8.424777,-0.040508207000000004,-0.4401927,-0.4401927
459,2463165351,0,-0.49928942,4.373419999999999,8.424777,-0.057001552999999996,-0.43225145,-0.43225145
460,2463165356,0,-0.49210715,4.3710260000000005,8.836561999999999,-0.057001552999999996,-0.43225145,-0.43225145
461,2463165366,0,-0.48731893,4.3351144999999995,9.140611999999999,-0.057001552999999996,-0.43225145,-0.43225145
462,2463165361,0,-0.48731893,4.3351144999999995,9.140611999999999,-0.04967118,-0.42247763,-0.42247763
463,2463165370,0,-0.48731893,4.3351144999999995,9.140611999999999,-0.024625726,-0.41026032,-0.41026032
464,2463165375,0,-0.49689534,4.3351144999999995,9.229194,-0.024625726,-0.41026032,-0.41026032
465,2463165380,0,-0.49689534,4.3351144999999995,9.229194,0.00591751,-0.39315609999999995,-0.39315609999999995
466,2463165385,0,-0.48253074,4.3877845,9.157371000000001,0.00591751,-0.39315609999999995,-0.39315609999999995
467,2463165390,0,-0.48253074,4.3877845,9.157371000000001,0.032184694,-0.37727365,-0.37727365
468,2463165394,0,-0.43225467,4.495518700000001,8.932326,0.032184694,-0.37727365,-0.37727365
469,2463165399,0,-0.43225467,4.495518700000001,8.932326,0.043791123,-0.36627808,-0.36627808
470,2463165404,0,-0.34606713,4.596071,8.556452,0.043791123,-0.36627808,-0.36627808
471,2463165409,0,-0.34606713,4.596071,8.556452,0.032184694,-0.36688894,-0.36688894
472,2463165414,0,-0.28621465,4.694228599999999,8.264372,0.032184694,-0.36688894,-0.36688894
473,2463165423,0,-0.31015563,4.727746499999999,8.247613000000001,0.032184694,-0.36688894,-0.36688894
474,2463165418,0,-0.31015563,4.727746499999999,8.247613000000001,0.0010305925,-0.37788449999999996,-0.37788449999999996
475,2463165428,0,-0.31015563,4.727746499999999,8.247613000000001,-0.03256697,-0.3919344,-0.3919344
476,2463165433,0,-0.31254974,4.6798644,8.283525,-0.03256697,-0.3919344,-0.3919344
477,2463165438,0,-0.31254974,4.6798644,8.283525,-0.060055878,-0.40354082,-0.40354082
478,2463165443,0,-0.31254974,4.653529,8.441535,-0.060055878,-0.40354082,-0.40354082
479,2463165452,0,-0.49450126,4.605647,8.822197000000001,-0.060055878,-0.40354082,-0.40354082
480,2463165447,0,-0.49450126,4.605647,8.822197000000001,-0.08143615,-0.41820157,-0.41820157
481,2463165457,0,-0.49450126,4.605647,8.822197000000001,-0.07654923,-0.42369935,-0.42369935
482,2463165462,0,-0.67645276,4.488336,9.066395,-0.07654923,-0.42369935,-0.42369935
483,2463165467,0,-0.67645276,4.488336,9.066395,-0.04844945,-0.41514724,-0.41514724
484,2463165471,0,-0.8224927,4.3255377,9.056819,-0.04844945,-0.41514724,-0.41514724
485,2463165481,0,-0.96135044,4.220197,8.867685,-0.04844945,-0.41514724,-0.41514724
486,2463165476,0,-0.96135044,4.220197,8.867685,-0.014241025,-0.39437786,-0.39437786
487,2463165486,0,-0.96135044,4.220197,8.867685,0.013247888999999999,-0.36322376,-0.36322376
488,2463165491,0,-1.0403558000000002,4.153163,8.575605,0.013247888999999999,-0.36322376,-0.36322376
489,2463165500,0,-0.97810924,4.1651335,8.290707000000001,0.013247888999999999,-0.36322376,-0.36322376
490,2463165495,0,-0.97810924,4.1651335,8.290707000000001,0.023632586,-0.32412842,-0.32412842
491,2463165505,0,-0.97810924,4.1651335,8.290707000000001,0.01080443,-0.29480690000000004,-0.29480690000000004
492,2463165510,0,-0.8368573,4.2154093,8.144667,0.01080443,-0.29480690000000004,-0.29480690000000004
493,2463165515,0,-0.8368573,4.2154093,8.144667,-0.021571402000000003,-0.28075700000000003,-0.28075700000000003
494,2463165519,0,-0.7578521,4.2489266,8.139878999999999,-0.021571402000000003,-0.28075700000000003,-0.28075700000000003
495,2463165524,0,-0.7578521,4.2489266,8.139878999999999,-0.060055878,-0.27525923,-0.27525923
496,2463165529,0,-0.7291229,4.301596599999999,8.235643,-0.060055878,-0.27525923,-0.27525923
497,2463165534,0,-0.7291229,4.301596599999999,8.235643,-0.09059912,-0.27525923,-0.27525923
498,2463165539,0,-0.74827564,4.344691,8.391259,-0.09059912,-0.27525923,-0.27525923
499,2463165544,0,-0.74827564,4.344691,8.391259,-0.107703336,-0.27648097,-0.27648097
500,2463165548,0,-0.84643376,4.301596599999999,8.546876,-0.107703336,-0.27648097,-0.27648097
501,2463165553,0,-0.84643376,4.301596599999999,8.546876,-0.10403815,-0.26976144,-0.26976144
502,2463165558,0,-0.95895636,4.229774,8.506176,-0.10403815,-0.26976144,-0.26976144
503,2463165563,0,-0.95895636,4.229774,8.506176,-0.088155665,-0.25021377,-0.25021377
504,2463165568,0,-1.0068383,4.229774,8.340983,-0.088155665,-0.25021377,-0.25021377
505,2463165572,0,-1.0068383,4.229774,8.340983,-0.07349491,-0.22333573,-0.22333573
506,2463165577,0,-0.88952756,4.253715000000001,8.132696000000001,-0.07349491,-0.22333573,-0.22333573
507,2463165582,0,-0.88952756,4.253715000000001,8.132696000000001,-0.072884046,-0.20562065,-0.20562065
508,2463165587,0,-0.72194064,4.2872324,7.898075,-0.072884046,-0.20562065,-0.20562065
509,2463165592,0,-0.72194064,4.2872324,7.898075,-0.08998826,-0.20195547,-0.20195547
510,2463165596,0,-0.52323043,4.382996,7.8477993,-0.08998826,-0.20195547,-0.20195547
511,2463165601,0,-0.52323043,4.382996,7.8477993,-0.11442284,-0.21111843,-0.21111843
512,2463165606,0,-0.45858976,4.497913,8.039327,-0.11442284,-0.21111843,-0.21111843
513,2463165616,0,-0.45858976,4.512277,8.352953999999999,-0.11442284,-0.21111843,-0.21111843
514,2463165611,0,-0.45858976,4.512277,8.352953999999999,-0.13519225,-0.23494215,-0.23494215
515,2463165621,0,-0.45858976,4.512277,8.352953999999999,-0.14313349,-0.26487452,-0.26487452
516,2463165625,0,-0.6118121,4.378207700000001,8.618699000000001,-0.14313349,-0.26487452,-0.26487452
517,2463165630,0,-0.6118121,4.378207700000001,8.618699000000001,-0.13458139,-0.2825896,-0.2825896
518,2463165635,0,-0.8129164000000001,4.232167700000001,8.798256,-0.13458139,-0.2825896,-0.2825896
519,2463165640,0,-0.8129164000000001,4.232167700000001,8.798256,-0.11442284,-0.28197876,-0.28197876
520,2463165645,0,-1.0164148000000002,4.17471,8.810226,-0.11442284,-0.28197876,-0.28197876
521,2463165649,0,-1.0164148000000002,4.17471,8.810226,-0.09365345,-0.25937673,-0.25937673
522,2463165654,0,-1.0642966999999999,4.201045,8.628275,-0.09365345,-0.25937673,-0.25937673
523,2463165659,0,-1.0642966999999999,4.201045,8.628275,-0.08021442599999999,-0.23127697,-0.23127697
524,2463165664,0,-1.0092325,4.2561088,8.400836,-0.08021442599999999,-0.23127697,-0.23127697
525,2463165669,0,-1.0092325,4.2561088,8.400836,-0.07716010000000001,-0.21050757,-0.21050757
526,2463165673,0,-0.93262136,4.3590555,8.209308,-0.07716010000000001,-0.21050757,-0.21050757
527,2463165678,0,-0.93262136,4.3590555,8.209308,-0.085101336,-0.20500979,-0.20500979
528,2463165683,0,-0.8560101000000001,4.445243,8.032145,-0.085101336,-0.20500979,-0.20500979
529,2463165688,0,-0.8560101000000001,4.445243,8.032145,-0.11442284,-0.21234016,-0.21234016
530,2463165693,0,-0.8943156999999999,4.459607,7.871740299999999,-0.11442284,-0.21234016,-0.21234016
531,2463165698,0,-0.8943156999999999,4.459607,7.871740299999999,-0.1639029,-0.22211399999999998,-0.22211399999999998
532,2463165702,0,-0.94459176,4.4763660000000005,7.931592,-0.1639029,-0.22211399999999998,-0.22211399999999998
533,2463165707,0,-0.94459176,4.4763660000000005,7.931592,-0.22193503,-0.22761178,-0.22761178
534,2463165712,0,-1.0044442,4.421302,8.240431,-0.22193503,-0.22761178,-0.22761178
535,2463165717,0,-1.0044442,4.421302,8.240431,-0.26652816,-0.23188783,-0.23188783
536,2463165722,0,-1.1241492,4.2968087,8.633063,-0.26652816,-0.23188783,-0.23188783
537,2463165726,0,-1.1241492,4.2968087,8.633063,-0.2817998,-0.22761178,-0.22761178
538,2463165731,0,-1.263007,4.201045,9.04006,-0.2817998,-0.22761178,-0.22761178
539,2463165741,0,-1.3659533000000001,4.1459804,9.432692,-0.2817998,-0.22761178,-0.22761178
540,2463165736,0,-1.3659533000000001,4.1459804,9.432692,-0.26530644,-0.21295103,-0.21295103
541,2463165750,0,-1.3683473,4.0957040000000005,9.643373500000001,-0.26530644,-0.21295103,-0.21295103
542,2463165746,0,-1.3683473,4.0957040000000005,9.643373500000001,-0.22132418,-0.18851644,-0.18851644
543,2463165755,0,-1.3683473,4.0957040000000005,9.643373500000001,-0.16207029,-0.1598058,-0.1598058
544,2463165760,0,-1.3252535,4.035851999999999,9.66492,-0.16207029,-0.1598058,-0.1598058
545,2463165765,0,-1.3252535,4.035851999999999,9.66492,-0.09915123,-0.12987342,-0.12987342
546,2463165770,0,-1.2127309,4.0693693,9.461421000000001,-0.09915123,-0.12987342,-0.12987342
547,2463165774,0,-1.2127309,4.0693693,9.461421000000001,-0.045395125,-0.10360624,-0.10360624
548,2463165779,0,-1.0235969999999999,4.1603446,9.075971000000001,-0.045395125,-0.10360624,-0.10360624
549,2463165784,0,-1.0235969999999999,4.1603446,9.075971000000001,-0.014851890500000001,-0.09077808,-0.09077808
550,2463165789,0,-0.80573404,4.3159614,8.774315,-0.014851890500000001,-0.09077808,-0.09077808
551,2463165799,0,-0.8009459,4.3877845,8.709674,-0.014851890500000001,-0.09077808,-0.09077808
552,2463165794,0,-0.8009459,4.3877845,8.709674,-0.007521514,-0.09749760000000002,-0.09749760000000002
553,2463165803,0,-0.8009459,4.3877845,8.709674,-0.0069106490000000005,-0.11276922,-0.11276922
554,2463165808,0,-0.8512219000000001,4.3638434,8.645033999999999,-0.0069106490000000005,-0.11276922,-0.11276922
555,2463165813,0,-0.8512219000000001,4.3638434,8.645033999999999,-0.009354108,-0.1286517,-0.1286517
556,2463165818,0,-0.93501544,4.3207498,8.532511,-0.009354108,-0.1286517,-0.1286517
557,2463165823,0,-0.93501544,4.3207498,8.532511,-0.023403997000000003,-0.13842553,-0.13842553
558,2463165827,0,-1.0547204,4.2704735000000005,8.470264,-0.023403997000000003,-0.13842553,-0.13842553
559,2463165832,0,-1.0547204,4.2704735000000005,8.470264,-0.044784263,-0.13659294,-0.13659294
560,2463165837,0,-1.0882378000000001,4.2417445,8.477447,-0.044784263,-0.13659294,-0.13659294
561,2463165842,0,-1.0882378000000001,4.2417445,8.477447,-0.07044058,-0.13170601,-0.13170601
562,2463165847,0,-1.0762671999999998,4.229774,8.594758,-0.07044058,-0.13170601,-0.13170601
563,2463165851,0,-1.0762671999999998,4.229774,8.594758,-0.0979295,-0.12926257,-0.12926257
564,2463165856,0,-1.0547204,4.234562400000001,8.779103,-0.0979295,-0.12926257,-0.12926257
565,2463165861,0,-1.0547204,4.234562400000001,8.779103,-0.12114236,-0.12804084,-0.12804084
566,2463165866,0,-1.0116266,4.2249856,8.982602,-0.12114236,-0.12804084,-0.12804084
567,2463165871,0,-1.0116266,4.2249856,8.982602,-0.14007917,-0.1268191,-0.1268191
568,2463165876,0,-1.0116266,4.13401,9.016119,-0.14007917,-0.1268191,-0.1268191
569,2463165885,0,-0.93501544,4.1028867,8.953872,-0.14007917,-0.1268191,-0.1268191
570,2463165880,0,-0.93501544,4.1028867,8.953872,-0.15412906,-0.12315391,-0.12315391
571,2463165890,0,-0.93501544,4.1028867,8.953872,-0.16695721,-0.11948872,-0.11948872
572,2463165895,0,-0.8368573,4.083734,8.870078999999999,-0.16695721,-0.11948872,-0.11948872
573,2463165900,0,-0.8368573,4.083734,8.870078999999999,-0.18283969,-0.11887786,-0.11887786
574,2463165904,0,-0.7722167,4.0023346,8.736009,-0.18283969,-0.11887786,-0.11887786
575,2463165909,0,-0.7722167,4.0023346,8.736009,-0.19811131,-0.121932186,-0.121932186
576,2463165914,0,-0.8368573,3.9712117,8.56124,-0.19811131,-0.121932186,-0.121932186
577,2463165919,0,-0.8368573,3.9712117,8.56124,-0.21338293,-0.12559737,-0.12559737
578,2463165924,0,-1.0140207,3.9520586000000004,8.515752,-0.21338293,-0.12559737,-0.12559737
579,2463165928,0,-1.0140207,3.9520586000000004,8.515752,-0.22621109,-0.121932186,-0.121932186
580,2463165933,0,-1.0978141000000001,3.889812,8.587575,-0.22621109,-0.121932186,-0.121932186
581,2463165938,0,-1.0978141000000001,3.889812,8.587575,-0.23170887,-0.10971489,-0.10971489
582,2463165943,0,-1.1576666000000002,3.8132010000000003,8.822197000000001,-0.23170887,-0.10971489,-0.10971489
583,2463165948,0,-1.1576666000000002,3.8132010000000003,8.822197000000001,-0.22376764,-0.09261068,-0.09261068
584,2463165953,0,-1.119361,3.8610828,9.066395,-0.22376764,-0.09261068,-0.09261068
585,2463165957,0,-1.119361,3.8610828,9.066395,-0.21155034,-0.08161511,-0.08161511
586,2463165962,0,-1.0595086,3.8634769999999996,9.193282,-0.21155034,-0.08161511,-0.08161511
587,2463165967,0,-1.0595086,3.8634769999999996,9.193282,-0.19872218,-0.07917166,-0.07917166
588,2463165972,0,-1.0068383,3.8515065,9.104700999999999,-0.19872218,-0.07917166,-0.07917166
589,2463165977,0,-1.0068383,3.8515065,9.104700999999999,-0.1895592,-0.07856079,-0.07856079
590,2463165981,0,-0.9230449000000001,3.8993886,8.9634495,-0.1895592,-0.07856079,-0.07856079
591,2463165986,0,-0.9230449000000001,3.8993886,8.9634495,-0.18772662,-0.08650203,-0.08650203
592,2463165991,0,-1.0044442,3.9472706,8.855714,-0.18772662,-0.08650203,-0.08650203
593,2463166001,0,-1.1792135,3.940088,8.831773,-0.18772662,-0.08650203,-0.08650203
594,2463165996,0,-1.1792135,3.940088,8.831773,-0.18528315,-0.102384515,-0.102384515
595,2463166005,0,-1.1792135,3.940088,8.831773,-0.18406142,-0.113380075,-0.113380075
596,2463166010,0,-1.3563768,3.8706593999999996,8.771921,-0.18406142,-0.113380075,-0.113380075
597,2463166015,0,-1.3563768,3.8706593999999996,8.771921,-0.18711574,-0.11521267,-0.11521267
598,2463166020,0,-1.531146,3.762925,8.776709,-0.18711574,-0.11521267,-0.11521267
599,2463166025,0,-1.531146,3.762925,8.776709,-0.19078094,-0.105438836,-0.105438836
600,2463166029,0,-1.6963389,3.6456141000000004,8.949084,-0.19078094,-0.105438836,-0.105438836
601,2463166034,0,-1.6963389,3.6456141000000004,8.949084,-0.18467229999999998,-0.076728195,-0.076728195
602,2463166039,0,-1.7585855,3.5163328999999997,9.111883,-0.18467229999999998,-0.076728195,-0.076728195
603,2463166044,0,-1.7585855,3.5163328999999997,9.111883,-0.1687898,-0.03763285,-0.03763285
604,2463166049,0,-1.7514032,3.4397216,9.241164,-0.1687898,-0.03763285,-0.03763285
605,2463166054,0,-1.7514032,3.4397216,9.241164,-0.14191176,0.004516816,0.004516816
606,2463166058,0,-1.6484569,3.4301449999999996,9.250741,-0.14191176,0.004516816,0.004516816
607,2463166063,0,-1.6484569,3.4301449999999996,9.250741,-0.10953593,0.04422302,0.04422302
608,2463166068,0,-1.5215696,3.4852092000000003,9.095124,-0.10953593,0.04422302,0.04422302
609,2463166073,0,-1.5215696,3.4852092000000003,9.095124,-0.08754479999999999,0.073544525,0.073544525
610,2463166078,0,-1.3420123,3.5259089999999995,8.898808500000001,-0.08754479999999999,0.073544525,0.073544525
611,2463166087,0,-1.0714791000000001,3.6312497,8.776709,-0.08754479999999999,0.073544525,0.073544525
612,2463166082,0,-1.0714791000000001,3.6312497,8.776709,-0.08021442599999999,0.091259606,0.091259606
613,2463166092,0,-1.0714791000000001,3.6312497,8.776709,-0.09059912,0.09431393,0.09431393
614,2463166097,0,-0.8296751,3.7461660000000006,8.719251,-0.09059912,0.09431393,0.09431393
615,2463166102,0,-0.8296751,3.7461660000000006,8.719251,-0.11625544,0.07720971,0.07720971
616,2463166106,0,-0.76264036,3.7964422999999994,8.606728,-0.11625544,0.07720971,0.07720971
617,2463166116,0,-0.9110744000000001,3.7677129999999996,8.539693,-0.11625544,0.07720971,0.07720971
618,2463166111,0,-0.9110744000000001,3.7677129999999996,8.539693,-0.14374435,0.045444753,0.045444753
619,2463166121,0,-0.9110744000000001,3.7677129999999996,8.539693,-0.16145943,0.02162103,0.02162103
620,2463166126,0,-1.0690848999999998,3.7030722999999997,8.551664,-0.16145943,0.02162103,0.02162103
621,2463166131,0,-1.0690848999999998,3.7030722999999997,8.551664,-0.1639029,0.012458058000000001,0.012458058000000001
622,2463166135,0,-1.1887898000000001,3.5905497000000004,8.592364,-0.1639029,0.012458058000000001,0.012458058000000001
623,2463166140,0,-1.1887898000000001,3.5905497000000004,8.592364,-0.15046386,0.019177571,0.019177571
624,2463166145,0,-1.2127309,3.4947858,8.573211,-0.15046386,0.019177571,0.019177571
625,2463166150,0,-1.2127309,3.4947858,8.573211,-0.12847273,0.038114376,0.038114376
626,2463166155,0,-1.1456962,3.4923917999999996,8.400836,-0.12847273,0.038114376,0.038114376
627,2463166159,0,-1.1456962,3.4923917999999996,8.400836,-0.113811985,0.06315983,0.06315983
628,2463166164,0,-0.97571504,3.6743433,8.190155,-0.113811985,0.06315983,0.06315983
629,2463166169,0,-0.97571504,3.6743433,8.190155,-0.12786187,0.08331836,0.08331836
630,2463166174,0,-0.65011764,3.887418,8.101574000000001,-0.12786187,0.08331836,0.08331836
631,2463166179,0,-0.65011764,3.887418,8.101574000000001,-0.16756807,0.08515096,0.08515096
632,2463166183,0,-0.1832684,4.138798,8.223672,-0.16756807,0.08515096,0.08515096
633,2463166188,0,-0.1832684,4.138798,8.223672,-0.22743282,0.052164264,0.052164264
634,2463166193,0,0.08247656,4.323144,8.544482,-0.22743282,0.052164264,0.052164264
635,2463166198,0,0.08247656,4.323144,8.544482,-0.29462793,-0.010143938,-0.010143938
636,2463166203,0,0.08726475,4.416514,9.001754,-0.29462793,-0.010143938,-0.010143938
637,2463166208,0,0.08726475,4.416514,9.001754,-0.34960577,-0.08100425,-0.08100425
638,2463166212,0,-0.11144544,4.294414499999999,9.468604,-0.34960577,-0.08100425,-0.08100425
639,2463166217,0,-0.11144544,4.294414499999999,9.468604,-0.37098604,-0.1390364,-0.1390364
640,2463166222,0,-0.39155500000000004,4.074157700000001,9.973758,-0.37098604,-0.1390364,-0.1390364
641,2463166227,0,-0.39155500000000004,4.074157700000001,9.973758,-0.34471884,-0.17080136,-0.17080136
642,2463166232,0,-0.6860291999999999,3.7533486000000003,10.423849,-0.34471884,-0.17080136,-0.17080136
643,2463166236,0,-0.6860291999999999,3.7533486000000003,10.423849,-0.27569112,-0.17202309,-0.17202309
644,2463166241,0,-0.9374094999999999,3.4445097000000002,10.629742,-0.27569112,-0.17202309,-0.17202309
645,2463166246,0,-0.9374094999999999,3.4445097000000002,10.629742,-0.17612018,-0.14636678,-0.14636678
646,2463166251,0,-1.0690848999999998,3.2697406000000004,10.548342,-0.17612018,-0.14636678,-0.14636678
647,2463166256,0,-1.0690848999999998,3.2697406000000004,10.548342,-0.07349491,-0.105438836,-0.105438836
648,2463166260,0,-0.9996560999999999,3.2841050000000003,10.158104,-0.07349491,-0.105438836,-0.105438836
649,2463166265,0,-0.9996560999999999,3.2841050000000003,10.158104,-0.006299784399999999,-0.07000868,-0.07000868
650,2463166270,0,-0.7817930999999999,3.3607163,9.638585,-0.006299784399999999,-0.07000868,-0.07000868
651,2463166275,0,-0.7817930999999999,3.3607163,9.638585,0.0034740514000000003,-0.051682737,-0.051682737
652,2463166280,0,-0.53520095,3.4445097000000002,9.190888000000001,0.0034740514000000003,-0.051682737,-0.051682737
653,2463166284,0,-0.53520095,3.4445097000000002,9.190888000000001,-0.042951666,-0.055347927000000005,-0.055347927000000005
654,2463166289,0,-0.49450126,3.4947858,9.037666,-0.042951666,-0.055347927000000005,-0.055347927000000005
655,2463166294,0,-0.49450126,3.4947858,9.037666,-0.12053149,-0.08344771,-0.08344771
656,2463166299,0,-0.63335896,3.5163328999999997,9.181312,-0.12053149,-0.08344771,-0.08344771
657,2463166304,0,-0.63335896,3.5163328999999997,9.181312,-0.18406142,-0.12376478,-0.12376478
658,2463166309,0,-0.9398036,3.329593,9.401569,-0.18406142,-0.12376478,-0.12376478
659,2463166313,0,-0.9398036,3.329593,9.401569,-0.21521552,-0.15247542,-0.15247542
660,2463166318,0,-1.3037066000000002,3.1213062000000003,9.564368,-0.21521552,-0.15247542,-0.15247542
661,2463166323,0,-1.3037066000000002,3.1213062000000003,9.564368,-0.20299824,-0.15064283,-0.15064283
662,2463166328,0,-1.6221218000000002,2.8795023,9.605067,-0.20299824,-0.15064283,-0.15064283
663,2463166333,0,-1.6221218000000002,2.8795023,9.605067,-0.14863127,-0.11948872,-0.11948872
664,2463166337,0,-1.7585855,2.750221,9.631402,-0.14863127,-0.11948872,-0.11948872
665,2463166342,0,-1.7585855,2.750221,9.631402,-0.06799713,-0.06939782,-0.06939782
666,2463166347,0,-1.6316981000000002,2.7382505,9.528456,-0.06799713,-0.06939782,-0.06939782
667,2463166352,0,-1.6316981000000002,2.7382505,9.528456,-0.0008020017,-0.02602642,-0.02602642
668,2463166357,0,-1.3898941,2.8555615000000003,9.322564,-0.0008020017,-0.02602642,-0.02602642
669,2463166366,0,-1.2414601,2.9656901,9.121459,-0.0008020017,-0.02602642,-0.02602642
670,2463166361,0,-1.2414601,2.9656901,9.121459,0.02913037,-0.0052570193000000005,-0.0052570193000000005
671,2463166371,0,-1.2414601,2.9656901,9.121459,0.013858752,-0.00403529,-0.00403529
672,2463166376,0,-1.1983663,3.0710304,9.044848,0.013858752,-0.00403529,-0.00403529
673,2463166381,0,-1.1983663,3.0710304,9.044848,-0.030123507999999997,-0.011365667,-0.011365667
674,2463166386,0,-1.2749774,3.0782125,9.054425,-0.030123507999999997,-0.011365667,-0.011365667
675,2463166390,0,-1.2749774,3.0782125,9.054425,-0.082047015,-0.013809126000000001,-0.013809126000000001
676,2463166395,0,-1.3898941,3.0255425,9.164553,-0.082047015,-0.013809126000000001,-0.013809126000000001
677,2463166400,0,-1.3898941,3.0255425,9.164553,-0.12053149,0.0026842222999999997,0.0026842222999999997
678,2463166405,0,-1.4665053999999997,2.9513254,9.351293,-0.12053149,0.0026842222999999997,0.0026842222999999997
679,2463166410,0,-1.4665053999999997,2.9513254,9.351293,-0.13152705,0.033838323999999996,0.033838323999999996
680,2463166414,0,-1.3994707,2.9465373,9.698437,-0.13152705,0.033838323999999996,0.033838323999999996
681,2463166419,0,-1.3994707,2.9465373,9.698437,-0.10525987,0.060716372000000005,0.060716372000000005
682,2463166424,0,-1.3276477,2.8292262999999997,9.741531,-0.10525987,0.060716372000000005,0.060716372000000005
683,2463166429,0,-1.3276477,2.8292262999999997,9.741531,-0.025847454,0.10469863,0.10469863
684,2463166434,0,-1.0499321000000001,2.8100736,9.470998,-0.025847454,0.10469863,0.10469863
685,2463166438,0,-1.0499321000000001,2.8100736,9.470998,0.05234323,0.14623743,0.14623743
686,2463166443,0,-0.6166003000000001,2.9656901,9.107095,0.05234323,0.14623743,0.14623743
687,2463166448,0,-0.6166003000000001,2.9656901,9.107095,0.08227559,0.16211991,0.16211991
688,2463166453,0,-0.29579103,3.2888932,8.776709,0.08227559,0.16211991,0.16211991
689,2463166458,0,-0.29579103,3.2888932,8.776709,0.059673607000000004,0.14257224,0.14257224
690,2463166462,0,-0.20720940000000002,3.4804212999999997,8.625881,0.059673607000000004,0.14257224,0.14257224
691,2463166467,0,-0.20720940000000002,3.4804212999999997,8.625881,0.0053066453,0.09492479,0.09492479
692,2463166472,0,-0.30776155,3.499574,8.714463,0.0053066453,0.09492479,0.09492479
693,2463166477,0,-0.30776155,3.499574,8.714463,-0.0527255,0.04422302,0.04422302
694,2463166482,0,-0.49689534,3.3822629999999996,9.066395,-0.0527255,0.04422302,0.04422302
695,2463166487,0,-0.49689534,3.3822629999999996,9.066395,-0.08876653,0.013068922,0.013068922
696,2463166491,0,-0.61899436,3.2841050000000003,9.470998,-0.08876653,0.013068922,0.013068922
697,2463166496,0,-0.61899436,3.2841050000000003,9.470998,-0.11075766,-0.0034244251,-0.0034244251
698,2463166501,0,-0.72194064,3.0973653999999997,9.724772,-0.11075766,-0.0034244251,-0.0034244251
699,2463166506,0,-0.72194064,3.0973653999999997,9.724772,-0.124807544,-0.004646154600000001,-0.004646154600000001
700,2463166511,0,-0.7530639,2.9920251,9.748713,-0.124807544,-0.004646154600000001,-0.004646154600000001
701,2463166515,0,-0.7530639,2.9920251,9.748713,-0.13397051,0.010625463,0.010625463
702,2463166520,0,-0.77700484,2.9561136,9.698437,-0.13397051,0.010625463,0.010625463
703,2463166525,0,-0.77700484,2.9561136,9.698437,-0.13885744,0.036281783,0.036281783
704,2463166530,0,-0.70757604,3.0016015,9.662526,-0.13885744,0.036281783,0.036281783
705,2463166535,0,-0.70757604,3.0016015,9.662526,-0.13702483,0.06315983,0.06315983
706,2463166539,0,-0.62138844,3.066242,9.698437,-0.13702483,0.06315983,0.06315983
707,2463166544,0,-0.62138844,3.066242,9.698437,-0.11930977,0.09064874,0.09064874
708,2463166549,0,-0.50886583,3.1500356,9.844477000000001,-0.11930977,0.09064874,0.09064874
709,2463166554,0,-0.50886583,3.1500356,9.844477000000001,-0.08265788,0.11325073,0.11325073
710,2463166559,0,-0.3963432,3.2481935,9.834901,-0.08265788,0.11325073,0.11325073
711,2463166568,0,-0.31494385,3.3367752999999998,9.86363,-0.08265788,0.11325073,0.11325073
712,2463166564,0,-0.31494385,3.3367752999999998,9.86363,-0.028290912999999997,0.11935938,0.11935938
713,2463166573,0,-0.31494385,3.3367752999999998,9.86363,0.037682477,0.11019641,0.11019641
714,2463166578,0,-0.24790907,3.3750807999999997,9.90433,0.037682477,0.11019641,0.11019641
715,2463166583,0,-0.24790907,3.3750807999999997,9.90433,0.10854278,0.08881614,0.08881614
716,2463166588,0,-0.26227367,3.3248047999999994,9.901936,0.10854278,0.08881614,0.08881614
717,2463166592,0,-0.26227367,3.3248047999999994,9.901936,0.18062481,0.06621415,0.06621415
718,2463166597,0,-0.18566251,3.3391693,9.846871,0.18062481,0.06621415,0.06621415
719,2463166602,0,-0.18566251,3.3391693,9.846871,0.23621350000000002,0.044833887,0.044833887
720,2463166607,0,-0.049198865999999994,3.4157805,9.686467,0.23621350000000002,0.044833887,0.044833887
721,2463166612,0,-0.049198865999999994,3.4157805,9.686467,0.25698289999999996,0.009403734,0.009403734
722,2463166616,0,0.13993493,3.54985,9.461421000000001,0.25698289999999996,0.009403734,0.009403734
723,2463166621,0,0.13993493,3.54985,9.461421000000001,0.22827226,-0.049239278,-0.049239278
724,2463166626,0,0.23091069,3.6336436,9.348899000000001,0.22827226,-0.049239278,-0.049239278
725,2463166631,0,0.23091069,3.6336436,9.348899000000001,0.15680109,-0.121932186,-0.121932186
726,2463166636,0,0.15669364,3.595338,9.04006,0.15680109,-0.121932186,-0.121932186
727,2463166641,0,0.15669364,3.595338,9.04006,0.06883657,-0.17813174,-0.17813174
728,2463166645,0,-0.09708085,3.4612682,8.74798,0.06883657,-0.17813174,-0.17813174
729,2463166650,0,-0.09708085,3.4612682,8.74798,-0.03317783,-0.21661621,-0.21661621
730,2463166655,0,-0.5136539999999999,3.2841050000000003,8.657003999999999,-0.03317783,-0.21661621,-0.21661621
731,2463166660,0,-0.5136539999999999,3.2841050000000003,8.657003999999999,-0.11625544,-0.22272487,-0.22272487
732,2463166665,0,-0.8727689000000001,3.1452472,8.762345,-0.11625544,-0.22272487,-0.22272487
733,2463166669,0,-0.8727689000000001,3.1452472,8.762345,-0.15473992,-0.19645768,-0.19645768
734,2463166674,0,-1.1145728000000001,2.9848428,8.977813000000001,-0.15473992,-0.19645768,-0.19645768
735,2463166679,0,-1.1145728000000001,2.9848428,8.977813000000001,-0.14374435,-0.15125369,-0.15125369
736,2463166684,0,-1.1504843,2.8651378,9.126248,-0.14374435,-0.15125369,-0.15125369
737,2463166689,0,-1.1504843,2.8651378,9.126248,-0.09304258,-0.104217105,-0.104217105
738,2463166693,0,-0.9374094999999999,2.8938669999999997,9.308199,-0.09304258,-0.104217105,-0.104217105
739,2463166703,0,-0.6596941,3.0016015,9.504515,-0.09304258,-0.104217105,-0.104217105
740,2463166698,0,-0.6596941,3.0016015,9.504515,-0.027680048999999998,-0.07245214,-0.07245214
741,2463166708,0,-0.6596941,3.0016015,9.504515,0.040125936,-0.06267831,-0.06267831
742,2463166713,0,-0.3987373,3.1572177000000003,9.696043,0.040125936,-0.06267831,-0.06267831
743,2463166717,0,-0.3987373,3.1572177000000003,9.696043,0.09449289,-0.07917166,-0.07917166
744,2463166722,0,-0.20720940000000002,3.2888932,9.7080145,0.09449289,-0.07917166,-0.07917166
745,2463166727,0,-0.20720940000000002,3.2888932,9.7080145,0.115262285,-0.12315391,-0.12315391
746,2463166732,0,-0.14735693,3.4085982000000006,9.655342999999998,0.115262285,-0.12315391,-0.12315391
747,2463166737,0,-0.14735693,3.4085982000000006,9.655342999999998,0.095714614,-0.18179692,-0.18179692
748,2463166742,0,-0.20960349,3.3750807999999997,9.67689,0.095714614,-0.18179692,-0.18179692
749,2463166746,0,-0.20960349,3.3750807999999997,9.67689,0.052954093,-0.23738562,-0.23738562
750,2463166751,0,-0.37000809999999995,3.2027058999999998,9.609855,0.052954093,-0.23738562,-0.23738562
751,2463166761,0,-0.6166003000000001,2.9944189999999997,9.38481,0.052954093,-0.23738562,-0.23738562
752,2463166756,0,-0.6166003000000001,2.9944189999999997,9.38481,0.01080443,-0.2740375,-0.2740375
753,2463166770,0,-0.93501544,2.8148617999999996,9.032878,0.01080443,-0.2740375,-0.2740375
754,2463166766,0,-0.93501544,2.8148617999999996,9.032878,-0.018517079,-0.2844222,-0.2844222
755,2463166775,0,-0.93501544,2.8148617999999996,9.032878,-0.02523659,-0.26365279999999996,-0.26365279999999996
756,2463166780,0,-1.2462482,2.7119155,8.738404,-0.02523659,-0.26365279999999996,-0.26365279999999996
757,2463166785,0,-1.2462482,2.7119155,8.738404,-0.013630161000000002,-0.21539448,-0.21539448
758,2463166790,0,-1.3970764999999998,2.6855803,8.518146,-0.013630161000000002,-0.21539448,-0.21539448
759,2463166794,0,-1.3970764999999998,2.6855803,8.518146,0.012026156999999999,-0.15064283,-0.15064283
760,2463166799,0,-1.3324357,2.7406447,8.345771000000001,0.012026156999999999,-0.15064283,-0.15064283
761,2463166804,0,-1.3324357,2.7406447,8.345771000000001,0.040125936,-0.085891165,-0.085891165
762,2463166809,0,-1.1840017,2.8842905,8.161425999999999,0.040125936,-0.085891165,-0.085891165
763,2463166819,0,-0.8943156999999999,3.1500356,8.044115,0.040125936,-0.085891165,-0.085891165
764,2463166814,0,-0.8943156999999999,3.1500356,8.044115,0.059673607000000004,-0.039465442,-0.039465442
765,2463166823,0,-0.8943156999999999,3.1500356,8.044115,0.05845187599999999,-0.024804688999999998,-0.024804688999999998
766,2463166828,0,-0.67884684,3.3200165999999998,8.130302,0.05845187599999999,-0.024804688999999998,-0.024804688999999998
767,2463166833,0,-0.67884684,3.3200165999999998,8.130302,0.048067175,-0.042519767,-0.042519767
768,2463166838,0,-0.5423832,3.3990218999999997,8.463082,0.048067175,-0.042519767,-0.042519767
769,2463166843,0,-0.5423832,3.3990218999999997,8.463082,0.04195853,-0.08222598,-0.08222598
770,2463166847,0,-0.57590055,3.3607163,8.891625999999999,0.04195853,-0.08222598,-0.08222598
771,2463166852,0,-0.57590055,3.3607163,8.891625999999999,0.04928890599999999,-0.12559737,-0.12559737
772,2463166857,0,-0.6549059,3.3583220999999996,9.260317,0.04928890599999999,-0.12559737,-0.12559737
773,2463166862,0,-0.6549059,3.3583220999999996,9.260317,0.07372349,-0.16774704,-0.16774704
774,2463166867,0,-0.5184422000000001,3.5881555,9.403963000000001,0.07372349,-0.16774704,-0.16774704
775,2463166871,0,-0.5184422000000001,3.5881555,9.403963000000001,0.1219818,-0.22822264,-0.22822264
776,2463166876,0,-0.45140746,3.5666089999999997,9.415933,0.1219818,-0.22822264,-0.22822264
777,2463166881,0,-0.45140746,3.5666089999999997,9.415933,0.18551174,-0.2862548,-0.2862548
778,2463166886,0,-0.6309649,3.2960756,9.363263,0.18551174,-0.2862548,-0.2862548
779,2463166891,0,-0.6309649,3.2960756,9.363263,0.23865697,-0.29969382,-0.29969382
780,2463166896,0,-0.9948679,2.8938669999999997,9.071183,0.23865697,-0.29969382,-0.29969382
781,2463166900,0,-0.9948679,2.8938669999999997,9.071183,0.25087425,-0.23677476,-0.23677476
782,2463166905,0,-1.1840017,2.7095213,8.791074,0.25087425,-0.23677476,-0.23677476
783,2463166910,0,-1.1840017,2.7095213,8.791074,0.17879222,-0.12620823,-0.12620823
784,2463166915,0,-1.0834496,2.8771082999999997,8.939508,0.17879222,-0.12620823,-0.12620823
785,2463166920,0,-1.0834496,2.8771082999999997,8.939508,0.028519503999999998,-0.019306906999999998,-0.019306906999999998
786,2463166924,0,-0.72194064,3.1620061,9.425510000000001,0.028519503999999998,-0.019306906999999998,-0.019306906999999998
787,2463166929,0,-0.72194064,3.1620061,9.425510000000001,-0.14618781,0.039336104,0.039336104
788,2463166934,0,-0.43225467,3.2457995,10.093463,-0.14618781,0.039336104,0.039336104
789,2463166939,0,-0.43225467,3.2457995,10.093463,-0.2848541,0.058883775,0.058883775
790,2463166944,0,-0.30776155,3.1979175,10.656077,-0.2848541,0.058883775,0.058883775
791,2463166948,0,-0.30776155,3.1979175,10.656077,-0.35327095,0.06377069,0.06377069
792,2463166953,0,-0.3652199,3.1572177000000003,11.017586,-0.35327095,0.06377069,0.06377069
793,2463166958,0,-0.3652199,3.1572177000000003,11.017586,-0.33066896,0.06987934,0.06987934
794,2463166963,0,-0.49210715,3.0949712000000003,11.091803,-0.33066896,0.06987934,0.06987934
795,2463166968,0,-0.49210715,3.0949712000000003,11.091803,-0.22682196,0.08515096,0.08515096
796,2463166972,0,-0.60462976,3.0949712000000003,10.696776,-0.22682196,0.08515096,0.08515096
797,2463166977,0,-0.60462976,3.0949712000000003,10.696776,-0.09670777,0.10469863,0.10469863
798,2463166982,0,-0.6884233000000001,3.1644,9.887571000000001,-0.09670777,0.10469863,0.10469863
799,2463166987,0,-0.6884233000000001,3.1644,9.887571000000001,-0.0044671902,0.12180284,0.12180284
800,2463166992,0,-0.5782946999999999,3.377475,9.1741295,-0.0044671902,0.12180284,0.12180284
801,2463166997,0,-0.5782946999999999,3.377475,9.1741295,0.030962966,0.11508333,0.11508333
802,2463167001,0,-0.38676679999999997,3.6288552000000003,8.652216000000001,0.030962966,0.11508333,0.11508333
803,2463167006,0,-0.38676679999999997,3.6288552000000003,8.652216000000001,0.03707161,0.070490204,0.070490204
804,2463167011,0,-0.17129791,3.6982844,8.305072000000001,0.03707161,0.070490204,0.070490204
805,2463167016,0,-0.17129791,3.6982844,8.305072000000001,0.02913037,0.00085162814,0.00085162814
806,2463167021,0,-0.013287395,3.7557425,8.360136,0.02913037,0.00085162814,0.00085162814
807,2463167025,0,-0.013287395,3.7557425,8.360136,0.018134806,-0.07733906,-0.07733906
808,2463167030,0,-0.0108933,3.7198309999999997,8.680945,0.018134806,-0.07733906,-0.07733906
809,2463167035,0,-0.0108933,3.7198309999999997,8.680945,0.015080482,-0.15919493,-0.15919493
810,2463167040,0,-0.11862774,3.592944,8.94669,0.015080482,-0.15919493,-0.15919493
811,2463167045,0,-0.11862774,3.592944,8.94669,0.021799992999999997,-0.23494215,-0.23494215
812,2463167049,0,-0.26227367,3.4612682,9.102307000000001,0.021799992999999997,-0.23494215,-0.23494215
813,2463167054,0,-0.26227367,3.4612682,9.102307000000001,0.030962966,-0.29969382,-0.29969382
814,2463167059,0,-0.45619568,3.329593,9.121459,0.030962966,-0.29969382,-0.29969382
815,2463167064,0,-0.45619568,3.329593,9.121459,0.03523902,-0.34611952,-0.34611952
816,2463167069,0,-0.6884233000000001,3.1811588,9.178918,0.03523902,-0.34611952,-0.34611952
817,2463167074,0,-0.6884233000000001,3.1811588,9.178918,0.032184694,-0.3748302,-0.3748302
818,2463167078,0,-0.92065084,3.015966,9.245952,0.032184694,-0.3748302,-0.3748302
819,2463167083,0,-0.92065084,3.015966,9.245952,0.020578265,-0.37910622,-0.37910622
820,2463167088,0,-1.1409079,2.9465373,9.301017,0.020578265,-0.37910622,-0.37910622
821,2463167093,0,-1.1409079,2.9465373,9.301017,0.0028631865999999995,-0.35650423,-0.35650423
822,2463167098,0,-1.2127309,2.9848428,9.43748,0.0028631865999999995,-0.35650423,-0.35650423
823,2463167102,0,-1.2127309,2.9848428,9.43748,-0.006299784399999999,-0.3192415,-0.3192415
824,2463167107,0,-1.021203,3.159612,9.538033500000001,-0.006299784399999999,-0.3192415,-0.3192415
825,2463167112,0,-1.021203,3.159612,9.538033500000001,0.0016414572,-0.29908296,-0.29908296
826,2463167117,0,-0.6381471,3.2936815999999998,9.511697,0.0016414572,-0.29908296,-0.29908296
827,2463167122,0,-0.6381471,3.2936815999999998,9.511697,0.021799992999999997,-0.31496543,-0.31496543
828,2463167126,0,-0.3412789,3.4445097000000002,9.447057000000001,0.021799992999999997,-0.31496543,-0.31496543
829,2463167131,0,-0.3412789,3.4445097000000002,9.447057000000001,0.038904205,-0.36139116,-0.36139116
830,2463167136,0,-0.19284481,3.54985,9.353686999999999,0.038904205,-0.36139116,-0.36139116
831,2463167141,0,-0.19284481,3.54985,9.353686999999999,0.038904205,-0.42247763,-0.42247763
832,2463167146,0,-0.13299233,3.5570322999999995,9.267499,0.038904205,-0.42247763,-0.42247763
833,2463167150,0,-0.13299233,3.5570322999999995,9.267499,0.011415293,-0.49089447,-0.49089447
834,2463167155,0,-0.12581003,3.4971797,9.344111,0.011415293,-0.49089447,-0.49089447
835,2463167160,0,-0.12581003,3.4971797,9.344111,-0.040508207000000004,-0.5629765,-0.5629765
836,2463167165,0,-0.31015563,3.3607163,9.600278999999999,-0.040508207000000004,-0.5629765,-0.5629765
837,2463167170,0,-0.31015563,3.3607163,9.600278999999999,-0.0997621,-0.6295607,-0.6295607
838,2463167175,0,-0.67884684,3.1500356,9.897147,-0.0997621,-0.6295607,-0.6295607
839,2463167179,0,-0.67884684,3.1500356,9.897147,-0.14374435,-0.66743433,-0.66743433
840,2463167184,0,-1.1073905000000002,2.9154139,10.194016,-0.14374435,-0.66743433,-0.66743433
841,2463167189,0,-1.1073905000000002,2.9154139,10.194016,-0.15718338,-0.66865605,-0.66865605
842,2463167194,0,-1.5048108999999998,2.7310684,10.438214,-0.15718338,-0.66865605,-0.66865605
843,2463167203,0,-1.7298563000000002,2.6161516,10.426243,-0.15718338,-0.66865605,-0.66865605
844,2463167199,0,-1.7298563000000002,2.6161516,10.426243,-0.13152705,-0.6350585,-0.6350585
845,2463167208,0,-1.7298563000000002,2.6161516,10.426243,-0.08021442599999999,-0.57580465,-0.57580465
846,2463167213,0,-1.7944968999999997,2.6185455,10.340056,-0.08021442599999999,-0.57580465,-0.57580465
847,2463167218,0,-1.7944968999999997,2.6185455,10.340056,-0.023403997000000003,-0.5037226,-0.5037226
848,2463167223,0,-1.6628214,2.7286744,10.270627000000001,-0.023403997000000003,-0.5037226,-0.5037226
849,2463167227,0,-1.6628214,2.7286744,10.270627000000001,0.023021724,-0.43836012,-0.43836012
850,2463167232,0,-1.3970764999999998,2.9369607,10.122193,0.023021724,-0.43836012,-0.43836012
851,2463167237,0,-1.3970764999999998,2.9369607,10.122193,0.04867804,-0.39559957,-0.39559957
852,2463167242,0,-1.0188088,3.1979175,9.966576,0.04867804,-0.39559957,-0.39559957
853,2463167247,0,-1.0188088,3.1979175,9.966576,0.055397555,-0.38949093,-0.38949093
854,2463167252,0,-0.6309649,3.4469037000000005,9.894753,0.055397555,-0.38949093,-0.38949093
855,2463167256,0,-0.6309649,3.4469037000000005,9.894753,0.05600842,-0.42675367,-0.42675367
856,2463167261,0,-0.47534847,3.5354855000000005,9.798989,0.05600842,-0.42675367,-0.42675367
857,2463167266,0,-0.47534847,3.5354855000000005,9.798989,0.051732365,-0.49944657,-0.49944657
858,2463167271,0,-0.6429354,3.40381,9.727166,0.051732365,-0.49944657,-0.49944657
859,2463167276,0,-0.6429354,3.40381,9.727166,0.042569395,-0.57336116,-0.57336116
860,2463167280,0,-1.1073905000000002,3.1452472,9.851659,0.042569395,-0.57336116,-0.57336116
861,2463167285,0,-1.1073905000000002,3.1452472,9.851659,0.036460746,-0.6130674,-0.6130674
862,2463167290,0,-1.6221218000000002,2.8244380000000002,9.973758,0.036460746,-0.6130674,-0.6130674
863,2463167295,0,-1.6221218000000002,2.8244380000000002,9.973758,0.042569395,-0.60634786,-0.60634786
864,2463167300,0,-2.0315125,2.601787,9.988123,0.042569395,-0.60634786,-0.60634786
865,2463167304,0,-2.0315125,2.601787,9.988123,0.06272792,-0.56175476,-0.56175476
866,2463167309,0,-2.2852871,2.4701116,9.918694,0.06272792,-0.56175476,-0.56175476
867,2463167314,0,-2.2852871,2.4701116,9.918694,0.09021684,-0.49028359999999993,-0.49028359999999993
868,2463167319,0,-2.354716,2.4437766,9.77026,0.09021684,-0.49028359999999993,-0.49028359999999993
869,2463167324,0,-2.354716,2.4437766,9.77026,0.115262285,-0.40842775,-0.40842775
870,2463167329,0,-2.2517697999999995,2.529964,9.655342999999998,0.115262285,-0.40842775,-0.40842775
871,2463167333,0,-2.2517697999999995,2.529964,9.655342999999998,0.13480996,-0.33573484,-0.33573484
872,2463167338,0,-1.9956011999999999,2.6233337000000003,9.660132,0.13480996,-0.33573484,-0.33573484
873,2463167343,0,-1.9956011999999999,2.6233337000000003,9.660132,0.15069245,-0.28320047,-0.28320047
874,2463167348,0,-1.6987328999999998,2.7382505,9.703225,0.15069245,-0.28320047,-0.28320047
875,2463167353,0,-1.6987328999999998,2.7382505,9.703225,0.16229887,-0.25571156,-0.25571156
876,2463167357,0,-1.4234115,2.8340147,9.705619,0.16229887,-0.25571156,-0.25571156
877,2463167362,0,-1.4234115,2.8340147,9.705619,0.16290973,-0.24838118,-0.24838118
878,2463167367,0,-1.1552725000000001,2.9058375,9.566761999999999,0.16290973,-0.24838118,-0.24838118
879,2463167372,0,-1.1552725000000001,2.9058375,9.566761999999999,0.14763811,-0.2618202,-0.2618202
880,2463167377,0,-1.0092325,2.9776607000000004,9.341716,0.14763811,-0.2618202,-0.2618202
881,2463167381,0,-1.0092325,2.9776607000000004,9.341716,0.116484016,-0.28747649999999997,-0.28747649999999997
882,2463167386,0,-1.0092325,2.9728722999999997,9.085548,0.116484016,-0.28747649999999997,-0.28747649999999997
883,2463167391,0,-1.0092325,2.9728722999999997,9.085548,0.07311262,-0.31130025,-0.31130025
884,2463167396,0,-1.0475379999999999,2.944143,9.164553,0.07311262,-0.31130025,-0.31130025
885,2463167401,0,-1.0475379999999999,2.944143,9.164553,0.037682477,-0.32168496,-0.32168496
886,2463167405,0,-1.0355675,2.774162,9.29144,0.037682477,-0.32168496,-0.32168496
887,2463167410,0,-1.0355675,2.774162,9.29144,0.03157383,-0.30458075,-0.30458075
888,2463167415,0,-0.8799511000000001,2.8411967999999996,9.743925,0.03157383,-0.30458075,-0.30458075
889,2463167420,0,-0.8799511000000001,2.8411967999999996,9.743925,0.040736802,-0.2966395,-0.2966395
890,2463167425,0,-0.67645276,2.9034432999999997,10.083886999999999,0.040736802,-0.2966395,-0.2966395
891,2463167430,0,-0.67645276,2.9034432999999997,10.083886999999999,0.07189089,-0.30274814,-0.30274814
892,2463167434,0,-0.47774255,2.91302,10.20838,0.07189089,-0.30274814,-0.30274814
893,2463167439,0,-0.47774255,2.91302,10.20838,0.104266725,-0.32168496,-0.32168496
894,2463167444,0,-0.31494385,3.0016015,10.222745,0.104266725,-0.32168496,-0.32168496
895,2463167449,0,-0.31494385,3.0016015,10.222745,0.13358822,-0.35283905,-0.35283905
896,2463167454,0,-0.17129791,3.185947,10.059946,0.13358822,-0.35283905,-0.35283905
897,2463167458,0,-0.17129791,3.185947,10.059946,0.14824899,-0.40476254,-0.40476254
898,2463167463,0,-0.1808743,3.3224108,9.748713,0.14824899,-0.40476254,-0.40476254
899,2463167468,0,-0.1808743,3.3224108,9.748713,0.14152947,-0.46523815,-0.46523815
900,2463167473,0,-0.3484612,3.3224108,9.380022,0.14152947,-0.46523815,-0.46523815
901,2463167478,0,-0.3484612,3.3224108,9.380022,0.113429695,-0.5189942,-0.5189942
902,2463167482,0,-0.7003938,3.2577700000000003,9.140611999999999,0.113429695,-0.5189942,-0.5189942
903,2463167487,0,-0.7003938,3.2577700000000003,9.140611999999999,0.07433435,-0.5452614,-0.5452614
904,2463167492,0,-1.0475379999999999,3.1691882999999996,9.109489,0.07433435,-0.5452614,-0.5452614
905,2463167497,0,-1.0475379999999999,3.1691882999999996,9.109489,0.03951507,-0.5397635999999999,-0.5397635999999999
906,2463167502,0,-1.2414601,3.1356710999999997,9.272288,0.03951507,-0.5397635999999999,-0.5397635999999999
907,2463167507,0,-1.2414601,3.1356710999999997,9.272288,0.024854317,-0.5189942,-0.5189942
908,2463167511,0,-1.2414601,3.1428533,9.573944000000001,0.024854317,-0.5189942,-0.5189942
909,2463167521,0,-1.1504843,3.1644,9.957,0.024854317,-0.5189942,-0.5189942
910,2463167516,0,-1.1504843,3.1644,9.957,0.032184694,-0.49517053,-0.49517053
911,2463167526,0,-1.1504843,3.1644,9.957,0.05784101,-0.47867718,-0.47867718
912,2463167531,0,-1.021203,3.1883411,10.28978,0.05784101,-0.47867718,-0.47867718
913,2463167535,0,-1.021203,3.1883411,10.28978,0.09327116,-0.4731794,-0.4731794
914,2463167540,0,-0.9661386999999999,3.252982,10.330478999999999,0.09327116,-0.4731794,-0.4731794
915,2463167545,0,-0.9661386999999999,3.252982,10.330478999999999,0.12503612,-0.4731794,-0.4731794
916,2463167550,0,-1.0547204,3.3248047999999994,10.052764,0.12503612,-0.4731794,-0.4731794
917,2463167555,0,-1.0547204,3.3248047999999994,10.052764,0.1464164,-0.46523815,-0.46523815
918,2463167559,0,-1.1744253999999998,3.3822629999999996,9.743925,0.1464164,-0.46523815,-0.46523815
919,2463167569,0,-1.191184,3.427751,9.490151,0.1464164,-0.46523815,-0.46523815
920,2463167564,0,-1.191184,3.427751,9.490151,0.16413146,-0.44446877,-0.44446877
921,2463167574,0,-1.191184,3.427751,9.490151,0.1824574,-0.42003417,-0.42003417
922,2463167579,0,-1.1863958000000001,3.4804212999999997,9.219617,0.1824574,-0.42003417,-0.42003417
923,2463167584,0,-1.1863958000000001,3.4804212999999997,9.219617,0.19162038,-0.39987564,-0.39987564
924,2463167588,0,-1.1385138000000001,3.5666089999999997,8.953872,0.19162038,-0.39987564,-0.39987564
925,2463167593,0,-1.1385138000000001,3.5666089999999997,8.953872,0.18184654,-0.38949093,-0.38949093
926,2463167598,0,-1.0810553999999999,3.6384317999999998,8.831773,0.18184654,-0.38949093,-0.38949093
927,2463167603,0,-1.0810553999999999,3.6384317999999998,8.831773,0.15802282,-0.39682132,-0.39682132
928,2463167608,0,-1.1241492,3.6384317999999998,8.764739,0.15802282,-0.39682132,-0.39682132
929,2463167612,0,-1.1241492,3.6384317999999998,8.764739,0.12503612,-0.41270378,-0.41270378
930,2463167617,0,-1.2965243999999998,3.6073086,8.843744000000001,0.12503612,-0.41270378,-0.41270378
931,2463167622,0,-1.2965243999999998,3.6073086,8.843744000000001,0.09143856,-0.41759070000000004,-0.41759070000000004
932,2463167627,0,-1.6149396,3.5019681000000005,9.087942,0.09143856,-0.41759070000000004,-0.41759070000000004
933,2463167632,0,-1.6149396,3.5019681000000005,9.087942,0.07433435,-0.39559957,-0.39559957
934,2463167636,0,-1.8328025000000001,3.3176227,9.356081,0.07433435,-0.39559957,-0.39559957
935,2463167641,0,-1.8328025000000001,3.3176227,9.356081,0.08166472599999999,-0.34550866,-0.34550866
936,2463167646,0,-1.8998373,3.1715825,9.609855,0.08166472599999999,-0.34550866,-0.34550866
937,2463167651,0,-1.8998373,3.1715825,9.609855,0.1115971,-0.28808740000000005,-0.28808740000000005
938,2463167656,0,-1.8950490000000002,3.0087838,9.731955000000001,0.1115971,-0.28808740000000005,-0.28808740000000005
939,2463167660,0,-1.8950490000000002,3.0087838,9.731955000000001,0.14824899,-0.22516832,-0.22516832
940,2463167665,0,-1.8615316000000002,2.917808,9.506909,0.14824899,-0.22516832,-0.22516832
941,2463167670,0,-1.8615316000000002,2.917808,9.506909,0.17146185,-0.16408186,-0.16408186
942,2463167675,0,-1.8663199000000001,2.8986554,9.059213,0.17146185,-0.16408186,-0.16408186
943,2463167680,0,-1.8663199000000001,2.8986554,9.059213,0.16474234,-0.10727143,-0.10727143
944,2463167685,0,-1.9046254,2.9944189999999997,8.546876,0.16474234,-0.10727143,-0.10727143
945,2463167689,0,-1.9046254,2.9944189999999997,8.546876,0.12870131,-0.051682737,-0.051682737
946,2463167694,0,-1.8830786,3.0806067,8.185367,0.12870131,-0.051682737,-0.051682737
947,2463167699,0,-1.8830786,3.0806067,8.185367,0.07922127,0.0014624929,0.0014624929
948,2463167704,0,-1.8280143,3.1308827,8.080027000000001,0.07922127,0.0014624929,0.0014624929
949,2463167709,0,-1.8280143,3.1308827,8.080027000000001,0.030352099999999996,0.052164264,0.052164264
950,2463167713,0,-1.6963389,3.183553,8.261978,0.030352099999999996,0.052164264,0.052164264
951,2463167718,0,-1.6963389,3.183553,8.261978,-0.005078055,0.09858998,0.09858998
952,2463167723,0,-1.4952345,3.1548238,8.637851,-0.005078055,0.09858998,0.09858998
953,2463167728,0,-1.4952345,3.1548238,8.637851,-0.020960538,0.1364636,0.1364636
954,2463167733,0,-1.2725833999999998,3.1356710999999997,9.049636,-0.020960538,0.1364636,0.1364636
955,2463167737,0,-1.2725833999999998,3.1356710999999997,9.049636,-0.023403997000000003,0.17189375,0.17189375
956,2463167742,0,-1.0044442,3.2410113999999997,9.368051,-0.023403997000000003,0.17189375,0.17189375
957,2463167747,0,-1.0044442,3.2410113999999997,9.368051,-0.02523659,0.19999352,0.19999352
958,2463167752,0,-0.7027879,3.4469037000000005,9.564368,-0.02523659,0.19999352,0.19999352
959,2463167757,0,-0.7027879,3.4469037000000005,9.564368,-0.03562129,0.2091565,0.2091565
960,2463167762,0,-0.415496,3.6551902000000003,9.772654,-0.03562129,0.2091565,0.2091565
961,2463167766,0,-0.415496,3.6551902000000003,9.772654,-0.052114636,0.193274,0.193274
962,2463167771,0,-0.20481529999999998,3.7820775999999996,10.014458,-0.052114636,0.193274,0.193274
963,2463167776,0,-0.20481529999999998,3.7820775999999996,10.014458,-0.059445015999999996,0.16028732,0.16028732
964,2463167781,0,-0.05159296,3.865871,10.270627000000001,-0.059445015999999996,0.16028732,0.16028732
965,2463167786,0,-0.05159296,3.865871,10.270627000000001,-0.050892908,0.11630505,0.11630505
966,2463167790,0,0.053747385999999994,3.8634769999999996,10.428637,-0.050892908,0.11630505,0.11630505
967,2463167795,0,0.053747385999999994,3.8634769999999996,10.428637,-0.025847454,0.065603286,0.065603286
968,2463167800,0,0.084870666,3.8419302,10.414273,-0.025847454,0.065603286,0.065603286
969,2463167805,0,0.084870666,3.8419302,10.414273,0.011415293,0.014290651000000001,0.014290651000000001
970,2463167810,0,-0.05159296,3.8203833,10.232321,0.011415293,0.014290651000000001,0.014290651000000001
971,2463167819,0,-0.24072677,3.8155951,10.05037,0.011415293,0.014290651000000001,0.014290651000000001
972,2463167814,0,-0.24072677,3.8155951,10.05037,0.05356496,-0.024193825,-0.024193825
973,2463167824,0,-0.24072677,3.8155951,10.05037,0.096936345,-0.043130632,-0.043130632
974,2463167829,0,-0.33170253,3.7772896,9.851659,0.096936345,-0.043130632,-0.043130632
975,2463167834,0,-0.33170253,3.7772896,9.851659,0.13603169,-0.054126195999999994,-0.054126195999999994
976,2463167839,0,-0.3412789,3.7868657,9.619432000000002,0.13603169,-0.054126195999999994,-0.054126195999999994
977,2463167843,0,-0.3412789,3.7868657,9.619432000000002,0.16229887,-0.06512176,-0.06512176
978,2463167848,0,-0.33170253,3.7964422999999994,9.444663,0.16229887,-0.06512176,-0.06512176
979,2463167853,0,-0.33170253,3.7964422999999994,9.444663,0.17512703,-0.08100425,-0.08100425
980,2463167858,0,-0.33409659999999997,3.7796836000000003,9.250741,0.17512703,-0.08100425,-0.08100425
981,2463167863,0,-0.33409659999999997,3.7796836000000003,9.250741,0.17512703,-0.10299538,-0.10299538
982,2463167867,0,-0.37719040000000004,3.7605307,8.982602,0.17512703,-0.10299538,-0.10299538
983,2463167872,0,-0.37719040000000004,3.7605307,8.982602,0.15985541,-0.12926257,-0.12926257
984,2463167877,0,-0.45858976,3.6743433,8.692916,0.15985541,-0.12926257,-0.12926257
985,2463167882,0,-0.45858976,3.6743433,8.692916,0.13358822,-0.15491888,-0.15491888
986,2463167887,0,-0.6022357,3.5426678999999996,8.518146,0.13358822,-0.15491888,-0.15491888
987,2463167891,0,-0.6022357,3.5426678999999996,8.518146,0.10487759,-0.17202309,-0.17202309
988,2463167896,0,-0.7674285,3.427751,8.501388,0.10487759,-0.17202309,-0.17202309
989,2463167901,0,-0.7674285,3.427751,8.501388,0.07983214,-0.17324482,-0.17324482
990,2463167906,0,-0.9278331,3.3463519,8.582787,0.07983214,-0.17324482,-0.17324482
991,2463167911,0,-0.9278331,3.3463519,8.582787,0.06272792,-0.1579732,-0.1579732
992,2463167915,0,-1.0379617,3.3176227,8.743192,0.06272792,-0.1579732,-0.1579732
993,2463167920,0,-1.0379617,3.3176227,8.743192,0.04989977,-0.13659294,-0.13659294
994,2463167925,0,-1.0547204,3.3343812999999995,8.913173,0.04989977,-0.13659294,-0.13659294
995,2463167930,0,-1.0547204,3.3343812999999995,8.913173,0.038904205,-0.11399094,-0.11399094
996,2463167935,0,-0.99007964,3.4109924,9.04006,0.038904205,-0.11399094,-0.11399094
997,2463167940,0,-0.99007964,3.4109924,9.04006,0.027297776,-0.093221545,-0.093221545
998,2463167944,0,-0.94938004,3.5139387,9.205252999999999,0.027297776,-0.093221545,-0.093221545
999,2463167949,0,-0.94938004,3.5139387,9.205252999999999,0.023021724,-0.077949926,-0.077949926
1000,2463167954,0,-0.92065084,3.5642145,9.322564,0.023021724,-0.077949926,-0.077949926
1001,2463167959,0,-0.92065084,3.5642145,9.322564,0.03279556,-0.07245214,-0.07245214
1002,2463167964,0,-0.94938004,3.6288552000000003,9.269893,0.03279556,-0.07245214,-0.07245214
1003,2463167968,0,-0.94938004,3.6288552000000003,9.269893,0.051732365,-0.07245214,-0.07245214
1004,2463167973,0,-1.0068383,3.6695550000000003,9.085548,0.051732365,-0.07245214,-0.07245214
1005,2463167978,0,-1.0068383,3.6695550000000003,9.085548,0.06639311,-0.07306301,-0.07306301
1006,2463167983,0,-1.0786613,3.6695550000000003,8.89402,0.06639311,-0.07306301,-0.07306301
1007,2463167988,0,-1.0786613,3.6695550000000003,8.89402,0.0700583,-0.07123041,-0.07123041
1008,2463167992,0,-1.2127309,3.6551902000000003,8.798256,0.0700583,-0.07123041,-0.07123041
1009,2463167997,0,-1.2127309,3.6551902000000003,8.798256,0.06700397,-0.060845707,-0.060845707
1010,2463168002,0,-1.3396181999999999,3.6168847,8.771921,0.06700397,-0.060845707,-0.060845707
1011,2463168007,0,-1.3396181999999999,3.6168847,8.771921,0.061506200000000004,-0.034578525,-0.034578525
1012,2463168012,0,-1.4234115,3.5594265,8.891625999999999,0.061506200000000004,-0.034578525,-0.034578525
1013,2463168017,0,-1.4234115,3.5594265,8.891625999999999,0.06028447,0.003295087,0.003295087
1014,2463168021,0,-1.3970764999999998,3.5522440000000004,9.150189,0.06028447,0.003295087,0.003295087
1015,2463168026,0,-1.3970764999999998,3.5522440000000004,9.150189,0.07494522,0.04361216,0.04361216
1016,2463168031,0,-1.2941303,3.6456141000000004,9.324958,0.07494522,0.04361216,0.04361216
1017,2463168036,0,-1.2941303,3.6456141000000004,9.324958,0.09937981,0.07537712,0.07537712
1018,2463168041,0,-1.1313313999999999,3.8275654,9.401569,0.09937981,0.07537712,0.07537712
1019,2463168045,0,-1.1313313999999999,3.8275654,9.401569,0.12259266,0.091259606,0.091259606
1020,2463168050,0,-0.9134684999999999,4.0478225,9.387203999999999,0.12259266,0.091259606,0.091259606
1021,2463168055,0,-0.9134684999999999,4.0478225,9.387203999999999,0.13786428,0.08759441,0.08759441
1022,2463168060,0,-0.7722167,4.2656849999999995,9.205252999999999,0.13786428,0.08759441,0.08759441
1023,2463168065,0,-0.7722167,4.2656849999999995,9.205252999999999,0.14152947,0.06865761,0.06865761
1024,2463168069,0,-0.7961577,4.406937,8.877261,0.14152947,0.06865761,0.06865761
1025,2463168074,0,-0.7961577,4.406937,8.877261,0.13786428,0.04239043,0.04239043
1026,2463168079,0,-0.94698596,4.4284844,8.546876,0.13786428,0.04239043,0.04239043
1027,2463168084,0,-0.94698596,4.4284844,8.546876,0.12625785,0.022842757,0.022842757
1028,2463168089,0,-1.1504843,4.375814,8.40323,0.12625785,0.022842757,0.022842757
1029,2463168093,0,-1.1504843,4.375814,8.40323,0.11281883,0.01795584,0.01795584
1030,2463168098,0,-1.3875002,4.2585034,8.465475999999999,0.11281883,0.01795584,0.01795584
1031,2463168103,0,-1.3875002,4.2585034,8.465475999999999,0.106099315,0.032616593,0.032616593
1032,2463168108,0,-1.5646634,4.1483746,8.652216000000001,0.106099315,0.032616593,0.032616593
1033,2463168113,0,-1.5646634,4.1483746,8.652216000000001,0.10915364,0.06499242,0.06499242
1034,2463168118,0,-1.6580332999999998,4.0717635,8.805438,0.10915364,0.06499242,0.06499242
1035,2463168122,0,-1.6580332999999998,4.0717635,8.805438,0.115262285,0.10286603,0.10286603
1036,2463168127,0,-1.6652155,4.0789456,8.956267,0.115262285,0.10286603,0.10286603
1037,2463168132,0,-1.6652155,4.0789456,8.956267,0.116484016,0.13951792,0.13951792
1038,2463168137,0,-1.6245159,4.1004925000000005,9.107095,0.116484016,0.13951792,0.13951792
1039,2463168142,0,-1.6245159,4.1004925000000005,9.107095,0.10915364,0.16945028,0.16945028
1040,2463168146,0,-1.5670575,4.1483746,9.250741,0.10915364,0.16945028,0.16945028
1041,2463168151,0,-1.5670575,4.1483746,9.250741,0.09754721,0.19083056,0.19083056
1042,2463168156,0,-1.5239638,4.196256,9.375233999999999,0.09754721,0.19083056,0.19083056
1043,2463168161,0,-1.5239638,4.196256,9.375233999999999,0.08716251,0.2091565,0.2091565
1044,2463168166,0,-1.5407224,4.213015,9.43748,0.08716251,0.2091565,0.2091565
1045,2463168170,0,-1.5407224,4.213015,9.43748,0.08410819,0.22381724,0.22381724
1046,2463168175,0,-1.5838162,4.1890745,9.418328,0.08410819,0.22381724,0.22381724
1047,2463168180,0,-1.5838162,4.1890745,9.418328,0.09021684,0.23969974,0.23969974
1048,2463168185,0,-1.6987328999999998,4.172315,9.43748,0.09021684,0.23969974,0.23969974
1049,2463168190,0,-1.6987328999999998,4.172315,9.43748,0.106099315,0.2629126,0.2629126
1050,2463168195,0,-1.7921028,4.138798,9.492545,0.106099315,0.2629126,0.2629126
1051,2463168204,0,-1.8016791,4.129222,9.540427000000001,0.106099315,0.2629126,0.2629126
1052,2463168199,0,-1.8016791,4.129222,9.540427000000001,0.13542083,0.29712102,0.29712102
1053,2463168209,0,-1.8016791,4.129222,9.540427000000001,0.17146185,0.33316204,0.33316204
1054,2463168214,0,-1.6939448000000001,4.1651335,9.57155,0.17146185,0.33316204,0.33316204
1055,2463168219,0,-1.6939448000000001,4.1651335,9.57155,0.20811373,0.35576403,0.35576403
1056,2463168223,0,-1.5598751,4.1938623999999995,9.557185,0.20811373,0.35576403,0.35576403
1057,2463168228,0,-1.5598751,4.1938623999999995,9.557185,0.24659821,0.3679813,0.3679813
1058,2463168233,0,-1.4521408000000002,4.198651,9.368051,0.24659821,0.3679813,0.3679813
1059,2463168238,0,-1.4521408000000002,4.198651,9.368051,0.27897403,0.3753117,0.3753117
1060,2463168243,0,-1.4042587,4.260897,9.006542999999999,0.27897403,0.3753117,0.3753117
1061,2463168247,0,-1.4042587,4.260897,9.006542999999999,0.2899696,0.37286824,0.37286824
1062,2463168252,0,-1.3994707,4.347085,8.697704,0.2899696,0.37286824,0.37286824
1063,2463168257,0,-1.3994707,4.347085,8.697704,0.27958488,0.35820749999999996,0.35820749999999996
1064,2463168262,0,-1.5479047,4.3327203,8.530117,0.27958488,0.35820749999999996,0.35820749999999996
1065,2463168267,0,-1.5479047,4.3327203,8.530117,0.25820464,0.34354672,0.34354672
1066,2463168272,0,-1.7202798,4.2178035000000005,8.527723,0.25820464,0.34354672,0.34354672
1067,2463168276,0,-1.7202798,4.2178035000000005,8.527723,0.23621350000000002,0.34293586,0.34293586
1068,2463168281,0,-1.9165959,4.1028867,8.594758,0.23621350000000002,0.34293586,0.34293586
1069,2463168286,0,-1.9165959,4.1028867,8.594758,0.21422237,0.36004007,0.36004007
1070,2463168291,0,-2.043483,4.019093499999999,8.594758,0.21422237,0.36004007,0.36004007
1071,2463168296,0,-2.043483,4.019093499999999,8.594758,0.1861226,0.387529,0.387529
1072,2463168300,0,-2.0698183,3.9783937999999996,8.637851,0.1861226,0.387529,0.387529
1073,2463168305,0,-2.0698183,3.9783937999999996,8.637851,0.15252504,0.41746137,0.41746137
1074,2463168310,0,-2.0482714,3.9472706,8.647428,0.15252504,0.41746137,0.41746137
1075,2463168315,0,-2.0482714,3.9472706,8.647428,0.116484016,0.44433942,0.44433942
1076,2463168320,0,-2.0985475,3.9017824999999995,8.657003999999999,0.116484016,0.44433942,0.44433942
1077,2463168324,0,-2.0985475,3.9017824999999995,8.657003999999999,0.08594078,0.47488266,0.47488266
1078,2463168329,0,-2.1679761,3.7892601000000004,8.664186500000001,0.08594078,0.47488266,0.47488266
1079,2463168334,0,-2.1679761,3.7892601000000004,8.664186500000001,0.06272792,0.5164215,0.5164215
1080,2463168339,0,-2.237405,3.6767373,8.649822,0.06272792,0.5164215,0.5164215
1081,2463168344,0,-2.237405,3.6767373,8.649822,0.046845447,0.57078844,0.57078844
1082,2463168348,0,-2.2206466000000002,3.6911017999999998,8.673763000000001,0.046845447,0.57078844,0.57078844
1083,2463168353,0,-2.2206466000000002,3.6911017999999998,8.673763000000001,0.03829334,0.6318749,0.6318749
1084,2463168358,0,-2.086577,3.8132010000000003,8.973025,0.03829334,0.6318749,0.6318749
1085,2463168363,0,-2.086577,3.8132010000000003,8.973025,0.040125936,0.6807441,0.6807441
1086,2463168368,0,-1.7897086,3.940088,9.389598,0.040125936,0.6807441,0.6807441
1087,2463168373,0,-1.7897086,3.940088,9.389598,0.057230145,0.71067643,0.71067643
1088,2463168377,0,-1.5455106,4.0550046,9.643373500000001,0.057230145,0.71067643,0.71067643
1089,2463168382,0,-1.5455106,4.0550046,9.643373500000001,0.084719054,0.721672,0.721672
1090,2463168387,0,-1.3898941,4.1220393,9.585914,0.084719054,0.721672,0.721672
1091,2463168392,0,-1.3898941,4.1220393,9.585914,0.11281883,0.71983945,0.71983945
1092,2463168397,0,-1.3875002,4.177104,9.277076,0.11281883,0.71983945,0.71983945
1093,2463168406,0,-1.432988,4.251321,8.901202,0.11281883,0.71983945,0.71983945
1094,2463168401,0,-1.432988,4.251321,8.901202,0.12870131,0.71800685,0.71800685
1095,2463168411,0,-1.432988,4.251321,8.901202,0.12442526,0.7149525,0.7149525
1096,2463168416,0,-1.4856582,4.282444,8.657003999999999,0.12442526,0.7149525,0.7149525
1097,2463168421,0,-1.4856582,4.282444,8.657003999999999,0.110375375,0.7149525,0.7149525
1098,2463168425,0,-1.5455106,4.2872324,8.520541,0.110375375,0.7149525,0.7149525
1099,2463168430,0,-1.5455106,4.2872324,8.520541,0.09204943,0.7137308000000001,0.7137308000000001
1100,2463168435,0,-1.5957867000000001,4.2417445,8.554058,0.09204943,0.7137308000000001,0.7137308000000001
1101,2463168440,0,-1.5957867000000001,4.2417445,8.554058,0.07128003,0.7112873000000001,0.7112873000000001
1102,2463168445,0,-1.6460627,4.1890745,8.688127,0.07128003,0.7112873000000001,0.7112873000000001
1103,2463168450,0,-1.6460627,4.1890745,8.688127,0.047456313,0.7137308000000001,0.7137308000000001
1104,2463168454,0,-1.6604275000000002,4.1076746,8.956267,0.047456313,0.7137308000000001,0.7137308000000001
1105,2463168459,0,-1.6604275000000002,4.1076746,8.956267,0.025465183,0.7265589,0.7265589
1106,2463168464,0,-1.653245,3.9616349000000004,9.265105,0.025465183,0.7265589,0.7265589
1107,2463168474,0,-1.6125454,3.8323538,9.550003,0.025465183,0.7265589,0.7265589
1108,2463168469,0,-1.6125454,3.8323538,9.550003,0.018134806,0.7497718000000001,0.7497718000000001
1109,2463168478,0,-1.6125454,3.8323538,9.550003,0.028519503999999998,0.7876454,0.7876454
1110,2463168483,0,-1.5670575,3.7078605000000002,9.688861,0.028519503999999998,0.7876454,0.7876454
1111,2463168488,0,-1.5670575,3.7078605000000002,9.688861,0.05356496,0.8395689000000001,0.8395689000000001
1112,2463168493,0,-1.4545348999999999,3.6120965,9.686467,0.05356496,0.8395689000000001,0.8395689000000001
1113,2463168498,0,-1.4545348999999999,3.6120965,9.686467,0.09143856,0.8994337,0.8994337
1114,2463168502,0,-1.3156771999999999,3.6360376000000003,9.597885,0.09143856,0.8994337,0.8994337
1115,2463168507,0,-1.3156771999999999,3.6360376000000003,9.597885,0.13542083,0.961131,0.961131
1116,2463168512,0,-1.09542,3.762925,9.468604,0.13542083,0.961131,0.961131
1117,2463168517,0,-1.09542,3.762925,9.468604,0.17940308,1.0081674999999999,1.0081674999999999
1118,2463168522,0,-0.8847393,3.9424822,9.296228999999999,0.17940308,1.0081674999999999,1.0081674999999999
1119,2463168527,0,-0.8847393,3.9424822,9.296228999999999,0.22216362,1.0277152,1.0277152
1120,2463168531,0,-0.7243347,4.162739299999999,9.001754,0.22216362,1.0277152,1.0277152
1121,2463168536,0,-0.7243347,4.162739299999999,9.001754,0.25392857,1.0203848,1.0203848
1122,2463168541,0,-0.63575304,4.330325599999999,8.61391,0.25392857,1.0203848,1.0203848
1123,2463168546,0,-0.63575304,4.330325599999999,8.61391,0.2600372,0.9953394,0.9953394
1124,2463168551,0,-0.60702384,4.4093313,8.252400999999999,0.2600372,0.9953394,0.9953394
1125,2463168555,0,-0.60702384,4.4093313,8.252400999999999,0.2380461,0.9654071,0.9654071
1126,2463168560,0,-0.6668763000000001,4.4141192,8.137485,0.2380461,0.9654071,0.9654071
1127,2463168565,0,-0.6668763000000001,4.4141192,8.137485,0.20078334,0.94097245,0.94097245
1128,2463168570,0,-0.7817930999999999,4.4093313,8.288313,0.20078334,0.94097245,0.94097245
1129,2463168575,0,-0.7817930999999999,4.4093313,8.288313,0.16290973,0.9318095,0.9318095
1130,2463168579,0,-0.8679806000000001,4.351873,8.54927,0.16290973,0.9318095,0.9318095
1131,2463168589,0,-0.8296751,4.275262000000001,8.798256,0.16290973,0.9318095,0.9318095
1132,2463168584,0,-0.8296751,4.275262000000001,8.798256,0.13786428,0.9379181000000001,0.9379181000000001
1133,2463168594,0,-0.8296751,4.275262000000001,8.798256,0.13114478,0.9538005999999999,0.9538005999999999
1134,2463168599,0,-0.69321144,4.246533,9.016119,0.13114478,0.9538005999999999,0.9538005999999999
1135,2463168603,0,-0.69321144,4.246533,9.016119,0.13664256,0.9690721999999999,0.9690721999999999
1136,2463168608,0,-0.52083635,4.260897,9.109489,0.13664256,0.9690721999999999,0.9690721999999999
1137,2463168613,0,-0.52083635,4.260897,9.109489,0.14947072,0.9782351999999999,0.9782351999999999
1138,2463168618,0,-0.36043173,4.3590555,8.984996,0.14947072,0.9782351999999999,0.9782351999999999
1139,2463168623,0,-0.36043173,4.3590555,8.984996,0.15557936,0.97395915,0.97395915
1140,2463168628,0,-0.25509137,4.517066000000001,8.838956,0.15557936,0.97395915,0.97395915
1141,2463168632,0,-0.25509137,4.517066000000001,8.838956,0.15619023,0.9538005999999999,0.9538005999999999
1142,2463168637,0,-0.21917988,4.6463470000000004,8.700097999999999,0.15619023,0.9538005999999999,0.9538005999999999
1143,2463168642,0,-0.21917988,4.6463470000000004,8.700097999999999,0.15557936,0.9189813,0.9189813
1144,2463168647,0,-0.26466775,4.7253523,8.688127,0.15557936,0.9189813,0.9189813
1145,2463168652,0,-0.26466775,4.7253523,8.688127,0.15680109,0.8676687,0.8676687
1146,2463168656,0,-0.30057925,4.6726823,8.901202,0.15680109,0.8676687,0.8676687
1147,2463168661,0,-0.30057925,4.6726823,8.901202,0.16901839,0.81452346,0.81452346
1148,2463168666,0,-0.3795845,4.5050955,9.061607,0.16901839,0.81452346,0.81452346
1149,2463168676,0,-0.50647175,4.3590555,9.066395,0.16901839,0.81452346,0.81452346
1150,2463168671,0,-0.50647175,4.3590555,9.066395,0.18917692,0.7742064000000001,0.7742064000000001
1151,2463168680,0,-0.50647175,4.3590555,9.066395,0.20261595,0.7552696,0.7552696
1152,2463168685,0,-0.65011764,4.2561088,8.862897,0.20261595,0.7552696,0.7552696
1153,2463168690,0,-0.65011764,4.2561088,8.862897,0.19650729,0.7619891,0.7619891
1154,2463168695,0,-0.6979996,4.2872324,8.604334,0.19650729,0.7619891,0.7619891
1155,2463168700,0,-0.6979996,4.2872324,8.604334,0.16290973,0.78153676,0.78153676
1156,2463168705,0,-0.5974475,4.390178,8.446323,0.16290973,0.78153676,0.78153676
1157,2463168709,0,-0.5974475,4.390178,8.446323,0.10915364,0.79680836,0.79680836
1158,2463168714,0,-0.42028418,4.5098834000000005,8.374500999999999,0.10915364,0.79680836,0.79680836
1159,2463168719,0,-0.42028418,4.5098834000000005,8.374500999999999,0.04623458,0.79803014,0.79803014
1160,2463168724,0,-0.29818514,4.6176176,8.429565,0.04623458,0.79803014,0.79803014
1161,2463168729,0,-0.29818514,4.6176176,8.429565,-0.011797566,0.78398025,0.78398025
1162,2463168733,0,-0.22636218,4.648741200000001,8.546876,-0.011797566,0.78398025,0.78398025
1163,2463168738,0,-0.22636218,4.648741200000001,8.546876,-0.042951666,0.76443255,0.76443255
1164,2463168743,0,-0.20720940000000002,4.610436,8.783891,-0.042951666,0.76443255,0.76443255
1165,2463168748,0,-0.20720940000000002,4.610436,8.783891,-0.037453886,0.7424414,0.7424414
1166,2463168753,0,-0.15693332,4.567342,9.035272,-0.037453886,0.7424414,0.7424414
1167,2463168757,0,-0.15693332,4.567342,9.035272,0.0016414572,0.71556336,0.71556336
1168,2463168762,0,-0.14975102,4.4787602,9.1861,0.0016414572,0.71556336,0.71556336
1169,2463168767,0,-0.14975102,4.4787602,9.1861,0.059673607000000004,0.68685275,0.68685275
1170,2463168772,0,-0.18566251,4.4715776,9.241164,0.059673607000000004,0.68685275,0.68685275
1171,2463168777,0,-0.18566251,4.4715776,9.241164,0.11770575,0.6624181,0.6624181
1172,2463168782,0,-0.24312088,4.447636599999999,9.217222999999999,0.11770575,0.6624181,0.6624181
1173,2463168786,0,-0.24312088,4.447636599999999,9.217222999999999,0.1653532,0.6471465000000001,0.6471465000000001
1174,2463168791,0,-0.26706186,4.416514,9.138218,0.1653532,0.6471465000000001,0.6471465000000001
1175,2463168796,0,-0.26706186,4.416514,9.138218,0.20567027,0.6410378999999999,0.6410378999999999
1176,2463168801,0,-0.23833267,4.450031,8.855714,0.20567027,0.6410378999999999,0.6410378999999999
1177,2463168806,0,-0.23833267,4.450031,8.855714,0.22705053,0.63676184,0.63676184
1178,2463168810,0,-0.24312088,4.538613,8.518146,0.22705053,0.63676184,0.63676184
1179,2463168815,0,-0.24312088,4.538613,8.518146,0.21544410000000003,0.6306531999999999,0.6306531999999999
1180,2463168820,0,-0.21678579,4.639165,8.223672,0.21544410000000003,0.6306531999999999,0.6306531999999999
1181,2463168825,0,-0.21678579,4.639165,8.223672,0.17329444,0.61782503,0.61782503
1182,2463168830,0,-0.1952389,4.694228599999999,7.998626700000001,0.17329444,0.61782503,0.61782503
1183,2463168834,0,-0.1952389,4.694228599999999,7.998626700000001,0.11220796400000001,0.6007208,0.6007208
1184,2463168839,0,-0.22636218,4.737323,7.9770803,0.11220796400000001,0.6007208,0.6007208
1185,2463168844,0,-0.22636218,4.737323,7.9770803,0.050510637000000004,0.5781188,0.5781188
1186,2463168849,0,-0.26706186,4.7421107000000005,8.149455,0.050510637000000004,0.5781188,0.5781188
1187,2463168858,0,-0.24312088,4.7205644,8.254796,0.050510637000000004,0.5781188,0.5781188
1188,2463168854,0,-0.24312088,4.7205644,8.254796,0.012026156999999999,0.55673856,0.55673856
1189,2463168863,0,-0.24312088,4.7205644,8.254796,-0.0014128664000000002,0.5353583000000001,0.5353583000000001
1190,2463168868,0,-0.13538644,4.7492933,8.261978,-0.0014128664000000002,0.5353583000000001,0.5353583000000001
1191,2463168873,0,-0.13538644,4.7492933,8.261978,-0.0056889196999999996,0.50848025,0.50848025
1192,2463168878,0,0.036988676,4.8977275,8.166214,-0.0056889196999999996,0.50848025,0.50848025
1193,2463168883,0,0.036988676,4.8977275,8.166214,-0.024625726,0.46449795,0.46449795
1194,2463168887,0,0.13035855,5.0820727,7.969898,-0.024625726,0.46449795,0.46449795
1195,2463168892,0,0.13035855,5.0820727,7.969898,-0.07654923,0.4064658,0.4064658
1196,2463168897,0,0.14472312,5.232901,7.850192999999999,-0.07654923,0.4064658,0.4064658
1197,2463168902,0,0.14472312,5.232901,7.850192999999999,-0.16207029,0.34354672,0.34354672
1198,2463168907,0,0.10402343,5.232901,7.9339867,-0.16207029,0.34354672,0.34354672
1199,2463168911,0,0.10402343,5.232901,7.9339867,-0.25308913,0.28612545,0.28612545
1200,2463168916,0,0.08726475,5.204172,8.072844,-0.25308913,0.28612545,0.28612545
1201,2463168921,0,0.08726475,5.204172,8.072844,-0.33066896,0.23114762,0.23114762
1202,2463168926,0,0.14472312,5.187412999999999,8.242825,-0.33066896,0.23114762,0.23114762
1203,2463168931,0,0.14472312,5.187412999999999,8.242825,-0.38747936,0.16945028,0.16945028
1204,2463168935,0,0.20696968,5.1754427000000005,8.484629,-0.38747936,0.16945028,0.16945028
1205,2463168940,0,0.20696968,5.1754427000000005,8.484629,-0.41008140000000004,0.10286603,0.10286603
1206,2463168945,0,0.22372839,5.170655,8.740798,-0.41008140000000004,0.10286603,0.10286603
1207,2463168950,0,0.22372839,5.170655,8.740798,-0.39542059999999996,0.033838323999999996,0.033838323999999996
1208,2463168955,0,0.19260511,5.170655,8.958661,-0.39542059999999996,0.033838323999999996,0.033838323999999996
1209,2463168960,0,0.19260511,5.170655,8.958661,-0.35754701,-0.033967662999999995,-0.033967662999999995
1210,2463168964,0,0.09444708,5.1323495,8.984996,-0.35754701,-0.033967662999999995,-0.033967662999999995
1211,2463168969,0,0.09444708,5.1323495,8.984996,-0.31661907,-0.10299538,-0.10299538
1212,2463168974,0,-0.15214512,5.06292,8.860503,-0.31661907,-0.10299538,-0.10299538
1213,2463168979,0,-0.15214512,5.06292,8.860503,-0.2811889,-0.1616384,-0.1616384
1214,2463168984,0,-0.54956555,4.91688,8.70728,-0.2811889,-0.1616384,-0.1616384
1215,2463168988,0,-0.54956555,4.91688,8.70728,-0.24881309999999998,-0.19279249,-0.19279249
1216,2463168993,0,-0.9948679,4.687047,8.680945,-0.24881309999999998,-0.19279249,-0.19279249
1217,2463168998,0,-0.9948679,4.687047,8.680945,-0.21032861,-0.17874260000000003,-0.17874260000000003
1218,2463169003,0,-1.3444061999999999,4.445243,8.798256,-0.21032861,-0.17874260000000003,-0.17874260000000003
1219,2463169008,0,-1.3444061999999999,4.445243,8.798256,-0.15840511,-0.12315391,-0.12315391
1220,2463169012,0,-1.4736876,4.2776556,8.973025,-0.15840511,-0.12315391,-0.12315391
1221,2463169017,0,-1.4736876,4.2776556,8.973025,-0.09548604,-0.046184953,-0.046184953
1222,2463169022,0,-1.3635591,4.234562400000001,9.298623,-0.09548604,-0.046184953,-0.046184953
1223,2463169027,0,-1.3635591,4.234562400000001,9.298623,-0.02645832,0.028951406000000002,0.028951406000000002
1224,2463169032,0,-1.1265433,4.2393503,9.619432000000002,-0.02645832,0.028951406000000002,0.028951406000000002
1225,2463169036,0,-1.1265433,4.2393503,9.619432000000002,0.052954093,0.090037875,0.090037875
1226,2463169041,0,-0.83446324,4.3351144999999995,9.684073,0.052954093,0.090037875,0.090037875
1227,2463169046,0,-0.83446324,4.3351144999999995,9.684073,0.13053389999999998,0.12546803,0.12546803
1228,2463169051,0,-0.61899436,4.514672,9.461421000000001,0.13053389999999998,0.12546803,0.12546803
1229,2463169056,0,-0.61899436,4.514672,9.461421000000001,0.18673345,0.12913321,0.12913321
1230,2463169061,0,-0.51604813,4.756476,9.05203,0.18673345,0.12913321,0.12913321
1231,2463169065,0,-0.51604813,4.756476,9.05203,0.21177891,0.10469863,0.10469863
1232,2463169070,0,-0.5328068,4.9623685,8.592364,0.21177891,0.10469863,0.10469863
1233,2463169075,0,-0.5328068,4.9623685,8.592364,0.20505941,0.060105505999999996,0.060105505999999996
1234,2463169080,0,-0.6716646,5.0677085,8.276342,0.20505941,0.060105505999999996,0.060105505999999996
1235,2463169089,0,-0.90628624,5.0605264000000005,8.388865,0.20505941,0.060105505999999996,0.060105505999999996
1236,2463169085,0,-0.90628624,5.0605264000000005,8.388865,0.17757049,0.0026842222999999997,0.0026842222999999997
1237,2463169094,0,-0.90628624,5.0605264000000005,8.388865,0.15985541,-0.04679582,-0.04679582
1238,2463169099,0,-1.1049964,4.871392299999999,8.822197000000001,0.15985541,-0.04679582,-0.04679582
1239,2463169104,0,-1.1049964,4.871392299999999,8.822197000000001,0.17268357,-0.07184128,-0.07184128
1240,2463169109,0,-1.1792135,4.6152239999999995,9.128642,0.17268357,-0.07184128,-0.07184128
1241,2463169113,0,-1.1792135,4.6152239999999995,9.128642,0.20750286,-0.07000868,-0.07000868
1242,2463169118,0,-1.1768193,4.4787602,9.169341000000001,0.20750286,-0.07000868,-0.07000868
1243,2463169123,0,-1.1768193,4.4787602,9.169341000000001,0.24659821,-0.04801755,-0.04801755
1244,2463169128,0,-1.0930258999999998,4.536218,8.879655,0.24659821,-0.04801755,-0.04801755
1245,2463169133,0,-1.0930258999999998,4.536218,8.879655,0.26309156,-0.021750366,-0.021750366
1246,2463169138,0,-0.98768556,4.708594000000001,8.527723,0.26309156,-0.021750366,-0.021750366
1247,2463169142,0,-0.98768556,4.708594000000001,8.527723,0.24232215,-0.008311342,-0.008311342
1248,2463169147,0,-0.9254389999999999,4.928850700000001,8.161425999999999,0.24232215,-0.008311342,-0.008311342
1249,2463169157,0,-0.95895636,5.086861,7.883711,0.24232215,-0.008311342,-0.008311342
1250,2463169152,0,-0.95895636,5.086861,7.883711,0.18795519,-0.015030853,-0.015030853
1251,2463169162,0,-0.95895636,5.086861,7.883711,0.11831660599999999,-0.035800256,-0.035800256
1252,2463169166,0,-1.0930258999999998,5.1275606,7.6658473,0.11831660599999999,-0.035800256,-0.035800256
1253,2463169171,0,-1.0930258999999998,5.1275606,7.6658473,0.050510637000000004,-0.056569654000000004,-0.056569654000000004
1254,2463169176,0,-1.3061007,5.06292,7.6921824999999995,0.050510637000000004,-0.056569654000000004,-0.056569654000000004
1255,2463169181,0,-1.3061007,5.06292,7.6921824999999995,0.0046957806,-0.06817609,-0.06817609
1256,2463169186,0,-1.3755296000000001,4.9240623,8.0082035,0.0046957806,-0.06817609,-0.06817609
1257,2463169190,0,-1.3755296000000001,4.9240623,8.0082035,0.0016414572,-0.062067437999999996,-0.062067437999999996
1258,2463169195,0,-1.3707413999999998,4.8498454,8.510964,0.0016414572,-0.062067437999999996,-0.062067437999999996
1259,2463169200,0,-1.3707413999999998,4.8498454,8.510964,0.04195853,-0.04557409,-0.04557409
1260,2463169205,0,-1.2318838,4.885757,9.233982000000001,0.04195853,-0.04557409,-0.04557409
1261,2463169210,0,-1.2318838,4.885757,9.233982000000001,0.12686872,-0.027859013999999998,-0.027859013999999998
1262,2463169215,0,-0.93501544,4.8737864,9.992911,0.12686872,-0.027859013999999998,-0.027859013999999998
1263,2463169219,0,-0.93501544,4.8737864,9.992911,0.24904168,-0.02236123,-0.02236123
1264,2463169224,0,-0.683635,4.888150700000001,10.126980999999999,0.24904168,-0.02236123,-0.02236123
1265,2463169229,0,-0.683635,4.888150700000001,10.126980999999999,0.36571681,-0.041298036,-0.041298036
1266,2463169234,0,-0.5447773,4.833087,9.715196,0.36571681,-0.041298036,-0.041298036
1267,2463169239,0,-0.5447773,4.833087,9.715196,0.4475727,-0.073673874,-0.073673874
1268,2463169243,0,-0.73391116,4.8953333,9.138218,0.4475727,-0.073673874,-0.073673874
1269,2463169248,0,-0.73391116,4.8953333,9.138218,0.5013287999999999,-0.093221545,-0.093221545
1270,2463169253,0,-1.0834496,5.000674,8.489417,0.5013287999999999,-0.093221545,-0.093221545
1271,2463169258,0,-1.0834496,5.000674,8.489417,0.54164594,-0.08833463,-0.08833463
1272,2463169263,0,-1.4305938,5.139531,7.8070993,0.54164594,-0.08833463,-0.08833463
1273,2463169267,0,-1.4305938,5.139531,7.8070993,0.5660805,-0.0748956,-0.0748956
1274,2463169272,0,-1.6843683999999997,5.204172,7.3163089999999995,0.5660805,-0.0748956,-0.0748956
1275,2463169277,0,-1.6843683999999997,5.204172,7.3163089999999995,0.5923477,-0.060845707,-0.060845707
1276,2463169282,0,-1.8256202000000001,5.247266000000001,7.0409875,0.5923477,-0.060845707,-0.060845707
1277,2463169287,0,-1.8256202000000001,5.247266000000001,7.0409875,0.6167823,-0.05107187,-0.05107187
1278,2463169291,0,-1.8830786,5.3023305,7.103234,0.6167823,-0.05107187,-0.05107187
1279,2463169296,0,-1.8830786,5.3023305,7.103234,0.63449734,-0.047406685,-0.047406685
1280,2463169301,0,-1.7849206000000002,5.3262715,7.213362700000001,0.63449734,-0.047406685,-0.047406685
1281,2463169306,0,-1.7849206000000002,5.3262715,7.213362700000001,0.6302213000000001,-0.04801755,-0.04801755
1282,2463169311,0,-1.6364864,5.350212,7.3378559999999995,0.6302213000000001,-0.04801755,-0.04801755
1283,2463169316,0,-1.6364864,5.350212,7.3378559999999995,0.59173685,-0.054126195999999994,-0.054126195999999994
1284,2463169320,0,-1.5479047,5.3693647,7.407284700000001,0.59173685,-0.054126195999999994,-0.054126195999999994
1285,2463169325,0,-1.5479047,5.3693647,7.407284700000001,0.52576345,-0.059013113,-0.059013113
1286,2463169330,0,-1.5862103,5.3789415,7.443196,0.52576345,-0.059013113,-0.059013113
1287,2463169335,0,-1.5862103,5.3789415,7.443196,0.4530705,-0.061456572,-0.061456572
1288,2463169340,0,-1.6604275000000002,5.3286653,7.622753599999999,0.4530705,-0.061456572,-0.061456572
1289,2463169344,0,-1.6604275000000002,5.3286653,7.622753599999999,0.40175784,-0.05595879,-0.05595879
1290,2463169349,0,-1.7370385,5.2496599999999995,7.7879467,0.40175784,-0.05595879,-0.05595879
1291,2463169354,0,-1.7370385,5.2496599999999995,7.7879467,0.3852645,-0.04557409,-0.04557409
1292,2463169359,0,-1.8160436999999998,5.201778,7.8956814,0.3852645,-0.04557409,-0.04557409
1293,2463169364,0,-1.8160436999999998,5.201778,7.8956814,0.40297958,-0.029691607000000002,-0.029691607000000002
1294,2463169368,0,-1.8519553,5.194596,7.7975225,0.40297958,-0.029691607000000002,-0.029691607000000002
1295,2463169373,0,-1.8519553,5.194596,7.7975225,0.43902060000000004,-0.01564172,-0.01564172
1296,2463169378,0,-1.8567435,5.204172,7.570083599999999,0.43902060000000004,-0.01564172,-0.01564172
1297,2463169383,0,-1.8567435,5.204172,7.570083599999999,0.47445074,-0.008311342,-0.008311342
1298,2463169388,0,-1.8711080000000002,5.232901,7.505442599999999,0.47445074,-0.008311342,-0.008311342
1299,2463169393,0,-1.8711080000000002,5.232901,7.505442599999999,0.5111027,-0.0052570193000000005,-0.0052570193000000005
1300,2463169397,0,-1.8232259999999998,5.2448716,7.8549814,0.5111027,-0.0052570193000000005,-0.0052570193000000005
1301,2463169407,0,-1.6197276000000003,5.2352953,7.9675035,0.5111027,-0.0052570193000000005,-0.0052570193000000005
1302,2463169402,0,-1.6197276000000003,5.2352953,7.9675035,0.5782978,0.00024076342000000001,0.00024076342000000001
1303,2463169412,0,-1.6197276000000003,5.2352953,7.9675035,0.6613754,-0.010754801000000001,-0.010754801000000001
1304,2463169417,0,-1.4545348999999999,5.299936,7.6682415,0.6613754,-0.010754801000000001,-0.010754801000000001
1305,2463169421,0,-1.4545348999999999,5.299936,7.6682415,0.71635324,-0.047406685,-0.047406685
1306,2463169426,0,-1.6436686999999999,5.1826253,7.275608999999999,0.71635324,-0.047406685,-0.047406685
1307,2463169431,0,-1.6436686999999999,5.1826253,7.275608999999999,0.71574235,-0.08772376,-0.08772376
1308,2463169436,0,-1.5383283,5.0389795,6.325152,0.71574235,-0.08772376,-0.08772376
1309,2463169441,0,-1.5383283,5.0389795,6.325152,0.694973,-0.11399094,-0.11399094
1310,2463169445,0,-1.5024168,5.5010405,6.274876,0.694973,-0.11399094,-0.11399094
1311,2463169450,0,-1.5024168,5.5010405,6.274876,0.6754253,-0.121932186,-0.121932186
